File: data/huawei/huawei_sun2000_20220904092043.csv
local_time,input_power,day_active_power_peak,active_power,accumulated_yield_energy,daily_yield_energy,grid_voltage_a_phase,b_phase_voltage,c_phase_voltage,power_meter_active_power,grid_frequency,grid_exported_energy,grid_accumulated_energy,storage_state_of_capacity,storage_charge_discharge_power,storage_current_day_charge_capacity,storage_current_day_discharge_capacity,backup_switch_to_off_grid,a_phase_active_power,b_phase_active_power,c_phase_active_power,forward_energy
2022-09-04T09:21:13.6141,3.492,1.728,0.0,7172.6,1.48,240.8,237.8,230.1,1.098,50.0,6183.95,855.67,79.0,3.492,3.3,2.83,0.0,0.002,0.001,0.029,10.83
2022-09-04T09:23:16.1469,3.523,1.728,0.0,7172.6,1.48,241.0,237.3,231.1,1.107,50.0,6183.99,855.67,79.0,3.523,3.46,2.83,0.0,0.001,0.001,0.029,10.83125
2022-09-04T09:25:18.5015,3.573,1.728,0.0,7172.6,1.48,242.3,238.1,231.8,1.123,49.99,6184.02,855.67,79.0,3.568,3.58,2.83,0.0,0.002,0.001,0.029,10.8325
2022-09-04T09:27:20.8838,3.606,1.728,0.0,7172.6,1.48,241.8,237.0,232.8,1.134,50.0,6184.06,855.67,80.0,3.606,3.58,2.83,0.0,0.001,0.001,0.029,10.83375
2022-09-04T09:29:23.1284,3.634,1.728,0.0,7172.6,1.48,241.3,237.3,232.3,1.145,50.0,6184.1,855.67,80.0,3.634,3.74,2.83,0.0,0.001,0.001,0.029,10.83375
2022-09-04T09:31:25.4538,3.661,1.728,0.0,7172.6,1.48,240.3,237.3,231.8,1.059,50.0,6184.14,855.67,80.0,3.661,3.92,2.83,0.0,0.001,0.001,0.029,10.835
2022-09-04T09:33:27.9303,3.712,1.728,0.0,7172.6,1.48,239.3,236.5,232.3,1.119,50.0,6184.18,855.67,81.0,3.712,3.92,2.83,0.0,0.001,0.001,0.029,10.83625
2022-09-04T09:35:30.1629,3.742,1.728,0.0,7172.6,1.48,244.0,235.0,233.8,1.123,50.0,6184.22,855.67,81.0,3.748,4.09,2.83,0.0,0.001,0.001,0.03,10.8375
2022-09-04T09:37:32.2735,3.783,1.728,0.0,7172.6,1.48,243.0,234.6,235.5,1.225,50.02,6184.25,855.67,82.0,3.783,4.26,2.83,0.0,0.001,0.001,0.03,10.83875
2022-09-04T09:39:34.5399,3.812,1.728,0.0,7172.6,1.48,244.1,235.6,236.3,1.235,50.04,6184.29,855.67,82.0,3.812,4.26,2.83,0.0,0.001,0.001,0.03,10.84
2022-09-04T09:41:36.6994,3.832,1.728,0.0,7172.6,1.48,242.8,235.1,236.8,1.241,50.02,6184.33,855.67,82.0,3.832,4.45,2.83,0.0,0.001,0.001,0.03,10.84125
2022-09-04T09:43:39.0025,3.875,1.728,0.0,7172.6,1.48,242.8,233.8,235.3,1.257,50.02,6184.39,855.67,83.0,3.875,4.63,2.83,0.0,0.001,0.001,0.03,10.8425
2022-09-04T09:45:41.2312,3.915,1.728,0.0,7172.6,1.48,242.3,235.5,233.6,1.265,50.0,6184.43,855.67,83.0,3.915,4.81,2.83,0.0,0.001,0.001,0.03,10.84375
2022-09-04T09:47:43.6633,3.939,1.728,0.0,7172.6,1.48,242.1,237.1,234.0,1.274,50.0,6184.47,855.67,84.0,3.939,4.81,2.83,0.0,0.001,0.001,0.03,10.845
2022-09-04T09:49:45.8947,3.952,1.728,0.0,7172.6,1.48,240.6,236.8,234.8,1.169,50.02,6184.52,855.67,84.0,3.952,4.93,2.83,0.0,0.001,0.001,0.03,10.84625
2022-09-04T09:51:48.1599,3.988,1.728,0.0,7172.6,1.48,242.5,236.8,232.6,1.194,50.0,6184.56,855.67,84.0,3.988,5.11,2.83,0.0,0.001,0.001,0.029,10.8475
2022-09-04T09:53:50.5688,4.026,1.728,0.0,7172.6,1.48,241.0,237.8,234.6,1.211,49.97,6184.6,855.67,85.0,4.026,5.11,2.83,0.0,0.001,0.001,0.03,10.84875
2022-09-04T09:55:52.7357,4.053,1.728,0.0,7172.6,1.48,242.3,236.3,235.8,1.307,50.0,6184.64,855.67,85.0,4.053,5.31,2.83,0.0,0.001,0.001,0.03,10.85
2022-09-04T09:57:54.9392,4.084,1.728,0.0,7172.6,1.48,242.8,235.8,237.1,1.316,49.99,6184.68,855.67,85.0,4.084,5.5,2.83,0.0,0.001,0.001,0.03,10.85125
2022-09-04T09:59:57.0907,4.125,1.728,0.0,7172.6,1.48,242.8,237.3,235.1,1.331,50.0,6184.72,855.67,86.0,4.125,5.7,2.83,0.0,0.001,0.001,0.03,10.8525
2022-09-04T10:01:59.3991,4.153,1.728,0.0,7172.6,1.48,242.6,237.1,233.8,1.342,49.97,6184.77,855.67,86.0,4.153,5.7,2.83,0.0,0.001,0.001,0.03,10.85375
2022-09-04T10:04:01.487325,4.175,1.728,0.0,7172.6,1.48,243.3,237.3,234.1,1.33,49.97,6184.81,855.67,86.0,4.175,5.89,2.83,0.0,0.001,0.001,0.03,10.85375
2022-09-04T10:06:03.716152,4.216,1.728,0.0,7172.6,1.48,243.3,238.6,235.1,1.327,49.97,6184.85,855.67,87.0,4.216,6.09,2.83,0.0,0.001,0.001,0.03,10.855
2022-09-04T10:08:05.698484,4.238,1.728,0.0,7172.6,1.48,239.8,239.3,235.8,1.33,50.0,6184.91,855.67,87.0,4.238,6.09,2.83,0.0,0.001,0.001,0.03,10.85625
2022-09-04T10:10:08.030792,4.271,1.728,0.0,7172.6,1.48,239.6,237.1,234.3,1.249,49.99,6184.95,855.67,88.0,4.271,6.19,2.83,0.0,0.002,0.001,0.03,10.8575
2022-09-04T10:12:10.4536,4.297,1.728,0.0,7172.6,1.48,242.1,235.6,236.3,1.253,50.0,6185.0,855.67,88.0,4.297,6.42,2.83,0.0,0.001,0.001,0.031,10.85875
2022-09-04T10:14:12.5666,4.325,1.728,0.0,7172.6,1.48,243.3,236.3,235.3,1.357,49.97,6185.04,855.67,89.0,4.325,6.63,2.83,0.0,0.002,0.001,0.03,10.86
2022-09-04T10:16:14.7986,4.348,1.728,0.0,7172.6,1.48,244.1,234.0,236.8,1.364,49.95,6185.08,855.67,89.0,4.348,6.63,2.83,0.0,0.002,0.001,0.03,10.86
2022-09-04T10:18:17.0395,4.408,1.728,0.0,7172.6,1.48,246.1,232.8,237.8,1.379,49.97,6185.12,855.67,90.0,4.408,6.84,2.83,0.0,0.001,0.001,0.031,10.8625
2022-09-04T10:20:19.3172,4.444,1.728,0.0,7172.6,1.48,245.6,236.6,238.3,1.39,50.0,6185.18,855.67,90.0,4.444,7.05,2.83,0.0,0.001,0.001,0.031,10.86375
2022-09-04T10:22:21.4357,4.462,1.728,0.0,7172.6,1.48,245.1,238.0,238.1,1.401,50.0,6185.22,855.67,90.0,4.462,7.05,2.83,0.0,0.001,0.001,0.031,10.865
2022-09-04T10:24:23.6422,4.499,1.728,0.0,7172.6,1.48,243.6,242.1,240.1,1.404,50.02,6185.27,855.67,91.0,4.499,7.26,2.83,0.0,0.001,0.001,0.031,10.86625
2022-09-04T10:26:25.8449,4.513,1.728,0.0,7172.6,1.48,242.1,236.8,237.1,1.416,50.02,6185.31,855.67,91.0,4.518,7.4,2.83,0.0,0.002,0.001,0.03,10.8675
2022-09-04T10:28:28.1745,4.547,1.728,0.0,7172.6,1.48,241.1,236.8,236.6,1.317,50.0,6185.37,855.67,91.0,4.547,7.61,2.83,0.0,0.001,0.001,0.03,10.8675
2022-09-04T10:30:30.4143,4.539,1.728,0.745,7172.61,1.49,249.5,238.6,235.8,2.103,50.02,6185.41,855.67,92.0,3.794,7.61,2.83,0.0,0.001,0.001,0.03,10.86875
2022-09-04T10:32:32.9269,4.575,1.728,0.164,7172.63,1.51,247.6,239.6,236.5,1.546,50.0,6185.49,855.67,93.0,4.411,7.82,2.83,0.0,0.002,0.001,0.03,10.87
2022-09-04T10:34:35.3092,4.655,1.728,0.0,7172.63,1.51,247.6,240.1,237.1,1.379,50.0,6185.52,855.67,95.0,4.655,8.02,2.83,0.0,0.002,0.001,0.03,10.8725
2022-09-04T10:36:37.7289,3.133,3.133,3.133,7172.63,1.51,250.5,240.8,238.6,5.867,50.0,6185.58,855.67,95.0,0.0,8.02,2.83,0.0,0.002,0.001,0.03,10.87375
2022-09-04T10:38:39.9981,4.581,4.581,4.581,7172.78,1.66,250.3,242.1,237.6,5.99,50.02,6185.77,855.67,95.0,0.0,8.25,2.83,0.0,0.001,0.001,0.03,10.875
2022-09-04T10:40:46.5801,,,,,,,,,,,,,,,,,,0.001,0.001,0.03,10.87625
2022-09-04T10:42:43.736,4.926,4.927,4.926,7173.1,1.98,248.3,238.1,237.3,6.518,50.0,6186.2,855.67,95.0,0.0,8.27,2.83,0.0,0.001,0.001,0.03,10.87625
2022-09-04T10:44:45.9984,5.188,5.189,5.188,7173.28,2.15,252.0,240.3,241.3,6.709,50.0,6186.43,855.67,95.0,0.0,8.28,2.83,0.0,0.002,0.001,0.031,10.8775
2022-09-04T10:46:48.2467,4.503,5.191,4.503,7173.44,2.32,246.1,238.3,236.3,5.852,50.0,6186.64,855.67,95.0,0.0,8.29,2.83,0.0,0.002,0.001,0.03,10.87875
2022-09-04T10:48:50.7677,2.953,5.191,2.953,7173.57,2.45,246.1,239.3,238.1,3.778,49.99,6186.79,855.67,95.0,0.0,8.29,2.83,0.0,0.001,0.001,0.031,10.88
2022-09-04T10:50:53.1709,2.749,5.191,2.749,7173.66,2.54,245.8,237.3,238.8,3.432,49.97,6186.91,855.67,95.0,0.0,8.29,2.83,0.0,0.001,0.001,0.031,10.88125
2022-09-04T10:52:55.3235,2.843,5.191,2.843,7173.75,2.63,247.1,239.1,237.3,3.086,50.0,6187.02,855.67,95.0,0.0,8.3,2.83,0.0,0.002,0.001,0.03,10.8825
2022-09-04T10:54:57.4838,3.886,5.191,3.886,7173.87,2.74,249.6,239.8,238.1,4.555,50.0,6187.14,855.67,95.0,0.0,8.31,2.83,0.0,0.002,0.001,0.031,10.8825
2022-09-04T10:56:59.6739,3.596,5.191,3.596,7174.0,2.88,247.0,239.3,238.1,4.143,49.97,6187.31,855.67,95.0,0.0,8.31,2.83,0.0,0.002,0.001,0.03,10.885
2022-09-04T10:59:01.934586,3.736,5.191,3.736,7174.13,3.01,246.8,237.8,237.6,4.368,50.0,6187.45,855.67,95.0,0.0,8.31,2.83,0.0,0.002,0.002,0.031,10.88625
2022-09-04T11:01:04.233549,3.238,5.191,3.238,7174.24,3.12,244.8,236.8,236.8,3.584,50.0,6187.58,855.67,95.0,0.0,8.32,2.83,0.0,0.002,0.001,0.03,10.8875
2022-09-04T11:03:06.431493,2.631,5.191,2.631,7174.34,3.22,244.6,237.1,236.8,2.773,50.0,6187.68,855.67,95.0,0.0,8.32,2.83,0.0,0.002,0.001,0.03,10.88875
2022-09-04T11:05:08.710031,2.575,5.191,2.575,7174.43,3.31,244.1,237.5,236.8,2.734,50.0,6187.79,855.67,95.0,0.0,8.33,2.83,0.0,0.002,0.001,0.03,10.89
2022-09-04T11:07:10.8507,2.358,5.191,2.358,7174.51,3.39,242.8,238.3,237.8,2.344,50.0,6187.87,855.67,95.0,0.0,8.33,2.83,0.0,0.002,0.001,0.03,10.89
2022-09-04T11:09:13.1488,2.209,5.191,2.209,7174.59,3.47,242.6,239.6,237.1,2.003,49.99,6187.95,855.67,95.0,0.0,8.34,2.83,0.0,0.002,0.001,0.03,10.89125
2022-09-04T11:11:15.3242,2.095,5.191,2.095,7174.67,3.55,239.6,235.8,234.3,1.882,50.0,6188.02,855.67,95.0,0.0,8.35,2.83,0.0,0.002,0.001,0.03,10.8925
2022-09-04T11:13:17.8324,1.981,5.191,1.981,7174.74,3.61,237.8,234.3,234.0,1.821,50.0,6188.08,855.67,95.0,0.0,8.36,2.83,0.0,0.002,0.001,0.03,10.89375
2022-09-04T11:15:19.9832,1.897,5.191,1.897,7174.8,3.68,237.3,235.3,233.8,1.709,49.97,6188.14,855.67,95.0,0.0,8.36,2.83,0.0,0.002,0.001,0.03,10.89625
2022-09-04T11:17:22.3932,1.819,5.191,1.819,7174.86,3.74,237.1,235.1,233.3,1.629,49.97,6188.2,855.67,95.0,0.0,8.36,2.83,0.0,0.002,0.001,0.03,10.8975
2022-09-04T11:19:24.8341,1.815,5.191,1.815,7174.93,3.8,238.6,234.0,232.8,1.628,49.97,6188.25,855.67,95.0,0.0,8.37,2.83,0.0,0.002,0.001,0.03,10.8975
2022-09-04T11:21:26.9315,1.95,5.191,1.95,7174.99,3.87,240.1,238.6,236.8,2.44,49.97,6188.33,855.67,95.0,0.0,8.37,2.83,0.0,0.002,0.001,0.03,10.89875
2022-09-04T11:23:34.8557,,,,,,,,,,,,,,,,,,0.002,0.001,0.031,10.9
2022-09-04T11:25:30.7619,6.178,6.354,6.178,7175.23,4.11,251.5,244.8,243.1,8.067,49.99,6188.64,855.67,95.0,0.0,8.39,2.83,0.0,0.002,0.001,0.032,10.90125
2022-09-04T11:27:32.9392,5.795,6.354,5.795,7175.44,4.32,253.5,244.0,242.3,7.44,49.99,6188.91,855.67,95.0,0.0,8.39,2.83,0.0,0.001,0.002,0.031,10.9025
2022-09-04T11:29:35.3309,5.563,6.354,5.563,7175.63,4.51,253.3,243.1,241.3,7.253,49.97,6189.16,855.67,95.0,0.0,8.39,2.83,0.0,0.001,0.001,0.031,10.90375
2022-09-04T11:31:37.6175,5.454,6.354,5.454,7175.82,4.7,244.5,242.6,241.3,7.11,49.99,6189.41,855.67,95.0,0.0,8.4,2.83,0.0,0.001,0.001,0.031,10.90625
2022-09-04T11:33:39.8371,3.679,6.354,3.679,7175.98,4.86,240.3,242.3,239.3,4.925,50.0,6189.62,855.67,95.0,0.0,8.41,2.83,0.0,0.001,0.002,0.031,10.90625
2022-09-04T11:35:41.9925,5.276,6.354,5.276,7176.12,5.0,242.3,243.3,239.3,6.907,50.0,6189.79,855.67,95.0,0.0,8.41,2.83,0.0,0.001,0.001,0.031,10.9075
2022-09-04T11:37:44.1078,5.153,6.354,5.153,7176.3,5.18,246.5,244.6,239.8,6.618,49.97,6190.02,855.67,95.0,0.0,8.42,2.83,0.0,0.002,0.002,0.031,10.90875
2022-09-04T11:39:46.355,5.008,6.354,5.008,7176.47,5.35,242.1,242.3,238.3,6.448,49.99,6190.25,855.67,95.0,0.0,8.43,2.83,0.0,0.001,0.001,0.031,10.91
2022-09-04T11:41:48.659,5.012,6.354,5.012,7176.64,5.52,245.5,240.1,239.5,6.431,49.97,6190.47,855.67,95.0,0.0,8.43,2.83,0.0,0.002,0.001,0.031,10.91125
2022-09-04T11:43:50.9621,4.968,6.354,4.968,7176.82,5.69,246.8,241.1,238.3,6.383,49.99,6190.68,855.67,95.0,0.0,8.44,2.83,0.0,0.001,0.001,0.031,10.9125
2022-09-04T11:45:53.2589,4.953,6.354,4.953,7176.98,5.86,245.0,240.1,239.3,6.267,49.97,6190.91,855.67,95.0,0.0,8.44,2.83,0.0,0.001,0.001,0.031,10.91375
2022-09-04T11:47:55.6228,4.923,6.354,4.923,7177.15,6.03,246.8,239.6,237.6,6.205,50.0,6191.12,855.67,95.0,0.0,8.45,2.83,0.0,0.002,0.001,0.03,10.91375
2022-09-04T11:49:57.8761,4.906,6.354,4.906,7177.32,6.2,247.8,239.6,238.1,6.253,49.99,6191.33,855.67,95.0,0.0,8.45,2.83,0.0,0.002,0.002,0.03,10.915
2022-09-04T11:52:00.302989,4.845,6.354,4.845,7177.48,6.36,247.0,240.6,239.1,6.286,49.97,6191.54,855.67,95.0,0.0,8.46,2.83,0.0,0.001,0.001,0.031,10.91625
2022-09-04T11:54:02.542238,4.838,6.354,4.838,7177.65,6.53,247.3,239.3,240.1,6.286,49.97,6191.75,855.67,95.0,0.0,8.46,2.83,0.0,0.002,0.001,0.031,10.9175
2022-09-04T11:56:04.981465,5.071,6.354,5.071,7177.82,6.7,247.6,242.1,240.6,6.472,50.0,6191.97,855.67,95.0,0.0,8.46,2.83,0.0,0.001,0.002,0.031,10.92
2022-09-04T11:58:07.189910,5.071,6.354,5.071,7177.99,6.87,247.3,240.8,240.5,6.538,49.99,6192.2,855.67,95.0,0.0,8.47,2.83,0.0,0.001,0.001,0.031,10.92125
2022-09-04T12:00:09.296557,5.093,6.354,5.093,7178.16,7.04,247.1,239.1,240.1,6.523,50.0,6192.41,855.67,95.0,0.0,8.47,2.83,0.0,0.001,0.001,0.031,10.92125
2022-09-04T12:02:11.5709,5.103,6.354,5.103,7178.33,7.21,249.3,237.8,240.8,6.544,49.99,6192.64,855.67,95.0,0.0,8.47,2.83,0.0,0.001,0.001,0.031,10.9225
2022-09-04T12:04:13.8911,5.111,6.354,5.111,7178.51,7.39,247.8,236.8,240.3,6.429,49.97,6192.85,855.67,95.0,0.0,8.47,2.83,0.0,0.001,0.001,0.031,10.92375
2022-09-04T12:06:16.202,5.091,6.354,5.091,7178.68,7.56,246.8,234.1,242.6,6.442,50.0,6193.08,855.67,95.0,0.0,8.47,2.83,0.0,0.002,0.001,0.032,10.925
2022-09-04T12:08:18.4089,5.096,6.354,5.096,7178.85,7.73,247.1,235.8,242.6,6.429,50.0,6193.29,855.67,95.0,0.0,8.47,2.83,0.0,0.001,0.001,0.031,10.92625
2022-09-04T12:10:20.6076,5.093,6.354,5.093,7179.03,7.91,245.6,233.8,241.3,6.548,50.0,6193.52,855.67,95.0,0.0,8.47,2.83,0.0,0.001,0.001,0.031,10.92875
2022-09-04T12:12:22.8964,5.105,6.354,5.105,7179.2,8.08,246.3,234.8,240.6,6.559,50.0,6193.74,855.67,95.0,0.0,8.47,2.83,0.0,0.002,0.001,0.031,10.93
2022-09-04T12:14:25.327,5.109,6.354,5.109,7179.38,8.25,250.8,237.5,242.5,6.548,50.0,6193.97,855.67,95.0,0.0,8.47,2.83,0.0,0.001,0.001,0.031,10.93125
2022-09-04T12:16:27.4918,5.116,6.354,5.116,7179.55,8.43,247.8,242.6,239.5,6.517,49.99,6194.18,855.67,95.0,0.0,8.47,2.83,0.0,0.002,0.001,0.031,10.93125
2022-09-04T12:18:29.8854,5.112,6.354,5.112,7179.72,8.6,243.8,243.8,241.5,6.513,49.97,6194.41,855.67,95.0,0.0,8.47,2.83,0.0,0.001,0.001,0.031,10.9325
2022-09-04T12:20:32.1557,5.112,6.354,5.112,7179.89,8.77,245.1,246.3,241.8,6.524,50.0,6194.62,855.67,95.0,0.0,8.47,2.83,0.0,0.001,0.001,0.031,10.93375
2022-09-04T12:22:34.4483,5.114,6.354,5.114,7180.07,8.95,245.8,244.6,240.3,6.561,49.97,6194.85,855.67,95.0,0.0,8.48,2.83,0.0,0.002,0.001,0.031,10.935
2022-09-04T12:24:36.6512,5.119,6.354,5.119,7180.24,9.12,246.8,242.3,241.3,5.965,49.99,6195.06,855.67,95.0,0.0,8.48,2.83,0.0,0.002,0.001,0.031,10.93625
2022-09-04T12:26:38.8432,5.111,6.354,5.111,7180.42,9.3,247.1,239.6,239.8,6.472,49.99,6195.27,855.67,95.0,0.0,8.48,2.83,0.0,0.002,0.001,0.031,10.9375
2022-09-04T12:28:41.039,5.118,6.354,5.118,7180.59,9.47,246.8,239.6,239.3,6.581,50.0,6195.5,855.67,95.0,0.0,8.48,2.83,0.0,0.001,0.001,0.031,10.93875
2022-09-04T12:30:43.0651,5.132,6.354,5.132,7180.76,9.64,249.5,240.6,242.8,6.586,49.97,6195.72,855.67,95.0,0.0,8.48,2.83,0.0,0.002,0.002,0.032,10.93875
2022-09-04T12:32:45.1583,5.129,6.354,5.129,7180.94,9.82,247.5,239.3,241.8,6.616,50.0,6195.95,855.67,95.0,0.0,8.48,2.83,0.0,0.002,0.001,0.031,10.94
2022-09-04T12:34:47.3122,5.135,6.354,5.135,7181.11,9.99,248.6,240.3,240.6,6.631,50.0,6196.18,855.67,95.0,0.0,8.48,2.83,0.0,0.002,0.002,0.031,10.9425
2022-09-04T12:36:49.6659,5.145,6.354,5.145,7181.29,10.17,249.3,243.3,240.8,6.644,49.97,6196.39,855.67,95.0,0.0,8.48,2.83,0.0,0.002,0.001,0.031,10.94375
2022-09-04T12:38:51.7595,5.133,6.354,5.133,7181.46,10.34,245.8,244.3,241.6,6.601,50.0,6196.62,855.67,95.0,0.0,8.48,2.83,0.0,0.002,0.001,0.031,10.945
2022-09-04T12:40:53.9759,5.117,6.354,5.117,7181.64,10.52,245.8,244.8,242.1,6.593,50.0,6196.85,855.67,95.0,0.0,8.48,2.83,0.0,0.001,0.001,0.031,10.94625
2022-09-04T12:42:56.313,5.137,6.354,5.137,7181.81,10.69,244.3,241.0,238.3,6.517,50.0,6197.06,855.67,95.0,0.0,8.48,2.83,0.0,0.001,0.001,0.03,10.9475
2022-09-04T12:44:58.6552,5.164,6.354,5.164,7181.98,10.86,246.6,243.8,240.0,6.571,50.02,6197.29,855.67,95.0,0.0,8.48,2.83,0.0,0.002,0.001,0.031,10.9475
2022-09-04T12:47:00.902081,5.174,6.354,5.174,7182.16,11.04,248.1,242.3,239.3,6.574,50.0,6197.52,855.67,95.0,0.0,8.48,2.83,0.0,0.001,0.002,0.031,10.95
2022-09-04T12:49:03.114923,5.169,6.354,5.169,7182.33,11.21,251.6,242.8,240.3,6.598,50.02,6197.74,855.67,95.0,0.0,8.48,2.83,0.0,0.002,0.001,0.031,10.95125
2022-09-04T12:51:05.393258,5.13,6.354,5.13,7182.51,11.39,253.8,243.1,240.6,6.563,50.0,6197.95,855.67,95.0,0.0,8.48,2.83,0.0,0.001,0.001,0.031,10.9525
2022-09-04T12:53:07.694025,5.156,6.354,5.156,7182.68,11.56,252.8,243.5,240.8,6.642,50.0,6198.16,855.67,95.0,0.0,8.48,2.83,0.0,0.002,0.001,0.031,10.95375
2022-09-04T12:55:09.811352,5.168,6.354,5.168,7182.86,11.74,248.6,243.0,240.8,6.577,50.02,6198.37,855.67,95.0,0.0,8.48,2.83,0.0,0.001,0.001,0.031,10.955
2022-09-04T12:57:12.2445,5.146,6.354,5.146,7183.04,11.91,247.1,241.8,238.3,6.545,50.0,6198.58,855.67,95.0,0.0,8.48,2.83,0.0,0.001,0.001,0.031,10.95625
2022-09-04T12:59:14.3345,5.156,6.354,5.156,7183.21,12.09,249.3,245.3,239.1,6.519,50.0,6198.79,855.67,95.0,0.0,8.48,2.83,0.0,0.002,0.001,0.031,10.95625
2022-09-04T13:01:16.5859,5.172,6.354,5.172,7183.39,12.26,243.3,244.1,241.1,6.437,49.97,6199.0,855.67,95.0,0.0,8.48,2.83,0.0,0.002,0.002,0.031,10.9575
2022-09-04T13:03:18.6155,5.152,6.354,5.152,7183.56,12.44,241.3,244.5,241.1,6.266,49.95,6199.2,855.67,95.0,0.0,8.48,2.83,0.0,0.003,0.001,0.031,10.95875
2022-09-04T13:05:20.9544,5.115,6.354,5.115,7183.74,12.61,245.8,242.8,238.6,6.314,49.97,6199.41,855.67,95.0,0.0,8.48,2.83,0.0,0.001,0.001,0.031,10.96
2022-09-04T13:07:23.1343,5.124,6.354,5.124,7183.91,12.79,248.6,240.8,238.1,6.442,49.97,6199.62,855.67,95.0,0.0,8.48,2.83,0.0,0.002,0.001,0.031,10.96125
2022-09-04T13:09:25.3125,5.094,6.354,5.094,7184.08,12.96,249.1,237.8,240.1,6.418,49.99,6199.83,855.67,95.0,0.0,8.48,2.83,0.0,0.002,0.002,0.031,10.9625
2022-09-04T13:11:27.5495,5.129,6.354,5.129,7184.25,13.13,247.6,239.3,239.3,6.252,50.0,6200.06,855.67,95.0,0.0,8.48,2.83,0.0,0.002,0.002,0.031,10.96375
2022-09-04T13:13:29.8458,5.148,6.354,5.148,7184.43,13.31,248.1,240.0,240.5,6.271,49.99,6200.27,855.67,95.0,0.0,8.48,2.83,0.0,0.002,0.001,0.031,10.965
2022-09-04T13:15:32.2957,5.122,6.354,5.122,7184.61,13.48,247.6,241.1,241.3,6.13,49.97,6200.49,855.67,95.0,0.0,8.48,2.83,0.0,0.002,0.001,0.031,10.96625
2022-09-04T13:17:34.5159,5.103,6.354,5.103,7184.78,13.66,243.8,242.8,240.8,6.077,50.0,6200.68,855.67,95.0,0.0,8.48,2.83,0.0,0.002,0.001,0.031,10.9675
2022-09-04T13:19:36.8451,5.027,6.354,5.027,7184.95,13.83,243.6,242.6,239.8,5.992,50.02,6200.89,855.67,95.0,0.0,8.48,2.83,0.0,0.002,0.001,0.031,10.96875
2022-09-04T13:21:38.9116,5.079,6.354,5.079,7185.12,14.0,243.3,244.3,239.6,6.092,50.0,6201.1,855.67,95.0,0.0,8.48,2.83,0.0,0.002,0.001,0.031,10.97125
2022-09-04T13:23:41.2268,5.093,6.354,5.093,7185.3,14.18,243.8,243.8,240.8,5.908,50.02,6201.29,855.67,95.0,0.0,8.48,2.83,0.0,0.002,0.001,0.031,10.9725
2022-09-04T13:25:43.6729,5.047,6.354,5.047,7185.46,14.34,244.3,244.3,239.8,6.132,50.0,6201.5,855.67,95.0,0.0,8.48,2.83,0.0,0.001,0.002,0.031,10.97375
2022-09-04T13:27:45.8297,5.026,6.354,5.026,7185.64,14.52,250.6,241.6,240.8,5.791,50.0,6201.7,855.67,95.0,0.0,8.48,2.83,0.0,0.002,0.001,0.031,10.97375
2022-09-04T13:29:48.3234,5.045,6.354,5.045,7185.81,14.69,248.5,239.6,239.8,6.151,50.0,6201.91,855.67,95.0,0.0,8.48,2.83,0.0,0.002,0.002,0.031,10.975
2022-09-04T13:31:50.6128,5.063,6.354,5.063,7185.98,14.86,246.3,238.8,239.8,6.193,49.97,6202.12,855.67,95.0,0.0,8.48,2.83,0.0,0.001,0.002,0.031,10.97625
2022-09-04T13:33:52.8888,5.137,6.354,5.137,7186.15,15.03,250.3,241.0,242.0,6.31,49.97,6202.33,855.67,95.0,0.0,8.48,2.83,0.0,0.002,0.002,0.031,10.9775
2022-09-04T13:35:54.9603,5.102,6.354,5.102,7186.33,15.21,244.1,245.8,243.6,6.145,50.0,6202.54,855.67,95.0,0.0,8.48,2.83,0.0,0.002,0.002,0.031,10.97875
2022-09-04T13:37:57.4062,5.045,6.354,5.045,7186.5,15.38,238.3,243.1,240.3,6.355,50.0,6202.75,855.67,95.0,0.0,8.48,2.83,0.0,0.001,0.002,0.031,10.98
2022-09-04T13:39:59.662,5.066,6.354,5.066,7186.67,15.55,240.3,242.1,239.8,6.261,50.0,6202.97,855.67,95.0,0.0,8.48,2.83,0.0,0.002,0.001,0.031,10.98125
2022-09-04T13:42:01.956418,5.017,6.354,5.017,7186.84,15.72,238.8,243.0,239.3,6.182,50.0,6203.18,855.67,95.0,0.0,8.48,2.83,0.0,0.002,0.002,0.031,10.98125
2022-09-04T13:44:04.314815,5.012,6.354,5.012,7187.01,15.89,236.8,241.3,238.6,6.09,50.0,6203.39,855.67,95.0,0.0,8.48,2.83,0.0,0.002,0.001,0.031,10.9825
2022-09-04T13:46:06.478185,5.013,6.354,5.013,7187.18,16.06,243.1,243.6,240.6,6.266,50.0,6203.6,855.67,95.0,0.0,8.48,2.83,0.0,0.002,0.001,0.031,10.98375
2022-09-04T13:48:08.815361,5.051,6.354,5.051,7187.35,16.23,247.1,241.6,239.8,6.294,50.0,6203.81,855.67,95.0,0.0,8.48,2.83,0.0,0.002,0.002,0.031,10.985
2022-09-04T13:50:10.9075,5.071,6.354,5.071,7187.52,16.4,247.3,241.3,238.3,6.331,50.0,6204.02,855.67,95.0,0.0,8.48,2.83,0.0,0.002,0.002,0.031,10.98625
2022-09-04T13:52:13.2329,5.051,6.354,5.051,7187.7,16.57,246.8,239.8,237.8,6.297,50.02,6204.25,855.67,95.0,0.0,8.48,2.83,0.0,0.002,0.002,0.03,10.98875
2022-09-04T13:54:15.7017,4.942,6.354,4.942,7187.87,16.75,248.8,238.6,238.1,6.137,50.0,6204.45,855.67,95.0,0.0,8.48,2.83,0.0,0.002,0.002,0.031,10.99
2022-09-04T13:56:17.8114,4.861,6.354,4.861,7188.03,16.91,242.8,240.8,239.8,6.057,50.0,6204.66,855.67,95.0,0.0,8.48,2.83,0.0,0.002,0.001,0.031,10.99125
2022-09-04T13:58:20.099,4.864,6.354,4.864,7188.2,17.08,241.5,240.1,239.6,5.902,49.97,6204.87,855.67,95.0,0.0,8.48,2.83,0.0,0.002,0.002,0.031,10.9925
2022-09-04T14:00:22.2415,4.853,6.354,4.853,7188.36,17.24,241.1,239.1,238.6,5.902,49.97,6205.06,855.67,95.0,0.0,8.48,2.83,0.0,0.002,0.001,0.031,10.99375
2022-09-04T14:02:24.7566,4.84,6.354,4.84,7188.53,17.41,239.1,239.8,240.8,5.842,49.99,6205.27,855.67,95.0,0.0,8.48,2.83,0.0,0.002,0.002,0.031,10.995
2022-09-04T14:04:26.8247,4.795,6.354,4.795,7188.69,17.57,240.5,238.1,239.3,5.858,49.97,6205.47,855.67,95.0,0.0,8.48,2.83,0.0,0.001,0.001,0.031,10.99625
2022-09-04T14:06:29.1785,4.748,6.354,4.748,7188.85,17.73,244.3,236.8,238.1,5.827,50.0,6205.66,855.67,95.0,0.0,8.48,2.83,0.0,0.002,0.002,0.03,10.9975
2022-09-04T14:08:31.4928,4.771,6.354,4.771,7189.01,17.89,246.3,236.3,241.1,5.864,49.99,6205.87,855.67,95.0,0.0,8.48,2.83,0.0,0.002,0.002,0.031,10.9975
2022-09-04T14:10:33.8586,4.76,6.354,4.76,7189.18,18.06,247.8,236.6,240.8,5.856,50.0,6206.06,855.67,95.0,0.0,8.48,2.83,0.0,0.002,0.002,0.031,10.99875
2022-09-04T14:12:36.2889,4.745,6.354,4.745,7189.34,18.22,248.8,236.3,237.8,5.846,50.0,6206.25,855.67,95.0,0.0,8.48,2.83,0.0,0.002,0.002,0.03,11.0
2022-09-04T14:14:38.6777,4.755,6.354,4.755,7189.5,18.38,248.3,236.1,240.6,5.822,50.02,6206.45,855.67,95.0,0.0,8.48,2.83,0.0,0.001,0.002,0.031,11.00125
2022-09-04T14:16:40.8528,4.739,6.354,4.739,7189.66,18.54,242.8,239.8,241.1,5.904,50.02,6206.66,855.67,95.0,0.0,8.48,2.83,0.0,0.001,0.002,0.031,11.0025
2022-09-04T14:18:42.98,4.726,6.354,4.726,7189.82,18.7,244.8,239.0,240.6,5.866,50.02,6206.85,855.67,95.0,0.0,8.48,2.83,0.0,0.002,0.002,0.031,11.00375
2022-09-04T14:20:45.5117,4.681,6.354,4.681,7189.98,18.86,242.3,240.8,241.8,5.814,50.0,6207.06,855.67,95.0,0.0,8.48,2.83,0.0,0.002,0.001,0.031,11.005
2022-09-04T14:22:47.6846,4.659,6.354,4.659,7190.14,19.02,242.1,239.8,242.8,5.92,50.02,6207.25,855.67,95.0,0.0,8.48,2.83,0.0,0.002,0.002,0.032,11.005
2022-09-04T14:24:50.0198,4.613,6.354,4.613,7190.3,19.18,246.6,238.1,241.1,5.881,50.0,6207.45,855.67,95.0,0.0,8.48,2.83,0.0,0.001,0.002,0.031,11.00625
2022-09-04T14:26:52.2443,4.637,6.354,4.637,7190.45,19.33,246.5,235.8,241.0,5.892,50.0,6207.64,855.67,95.0,0.0,8.48,2.83,0.0,0.001,0.002,0.031,11.00875
2022-09-04T14:28:54.413,4.582,6.354,4.582,7190.61,19.49,246.0,235.8,240.1,5.829,50.0,6207.85,855.67,95.0,0.0,8.48,2.83,0.0,0.001,0.002,0.031,11.01
2022-09-04T14:30:56.8499,4.586,6.354,4.586,7190.77,19.65,247.1,235.1,240.3,5.825,49.99,6208.04,855.67,95.0,0.0,8.48,2.83,0.0,0.002,0.002,0.031,11.01125
2022-09-04T14:32:59.152,4.585,6.354,4.585,7190.92,19.8,248.8,234.8,240.8,5.833,49.99,6208.25,855.67,95.0,0.0,8.48,2.83,0.0,0.002,0.002,0.031,11.01375
2022-09-04T14:35:01.390706,4.578,6.354,4.578,7191.08,19.96,248.3,233.3,241.6,5.788,49.99,6208.45,855.67,95.0,0.0,8.48,2.83,0.0,0.002,0.001,0.031,11.015
2022-09-04T14:37:03.614362,4.546,6.354,4.546,7191.23,20.11,241.1,235.8,241.6,5.69,49.99,6208.64,855.67,95.0,0.0,8.48,2.83,0.0,0.002,0.002,0.031,11.015
2022-09-04T14:39:05.795544,4.507,6.354,4.507,7191.39,20.27,242.1,237.6,240.8,5.637,49.99,6208.83,855.67,95.0,0.0,8.48,2.83,0.0,0.002,0.002,0.031,11.01625
2022-09-04T14:41:07.972888,4.477,6.354,4.477,7191.54,20.42,241.8,239.1,240.6,5.676,50.0,6209.02,855.67,95.0,0.0,8.48,2.83,0.0,0.002,0.001,0.031,11.0175
2022-09-04T14:43:10.2081,4.444,6.354,4.444,7191.69,20.57,243.6,238.6,241.0,5.653,50.02,6209.22,855.67,95.0,0.0,8.48,2.83,0.0,0.001,0.002,0.031,11.01875
2022-09-04T14:45:12.5696,4.442,6.354,4.442,7191.84,20.72,246.6,237.3,240.6,5.644,50.0,6209.41,855.67,95.0,0.0,8.49,2.83,0.0,0.001,0.001,0.031,11.02
2022-09-04T14:47:14.8877,4.419,6.354,4.419,7191.99,20.87,247.8,238.3,239.8,5.545,50.0,6209.6,855.67,95.0,0.0,8.49,2.83,0.0,0.001,0.002,0.031,11.02125
2022-09-04T14:49:17.0456,4.396,6.354,4.396,7192.14,21.02,246.3,238.5,240.0,5.517,50.02,6209.77,855.67,95.0,0.0,8.49,2.83,0.0,0.002,0.002,0.031,11.0225
2022-09-04T14:51:19.3234,4.393,6.354,4.393,7192.29,21.17,248.3,236.6,239.6,5.519,50.0,6209.97,855.67,95.0,0.0,8.49,2.83,0.0,0.002,0.002,0.031,11.02375
2022-09-04T14:53:21.5207,4.366,6.354,4.366,7192.44,21.32,249.1,240.0,238.3,5.476,50.0,6210.16,855.67,95.0,0.0,8.49,2.83,0.0,0.002,0.002,0.03,11.02375
2022-09-04T14:55:23.6479,4.337,6.354,4.337,7192.59,21.47,243.3,241.1,238.8,5.344,49.99,6210.33,855.67,95.0,0.0,8.49,2.83,0.0,0.002,0.002,0.031,11.025
2022-09-04T14:57:25.9584,4.313,6.354,4.313,7192.74,21.62,239.1,240.3,238.3,5.337,49.97,6210.52,855.67,95.0,0.0,8.49,2.83,0.0,0.001,0.002,0.031,11.02625
2022-09-04T14:59:28.4884,4.28,6.354,4.28,7192.88,21.76,239.3,241.3,238.1,5.318,50.0,6210.7,855.67,95.0,0.0,8.49,2.83,0.0,0.001,0.002,0.031,11.0275
2022-09-04T15:01:30.7736,4.235,6.354,4.235,7193.03,21.91,238.1,240.1,238.3,5.381,49.99,6210.89,855.67,95.0,0.0,8.49,2.83,0.0,0.001,0.001,0.03,11.02875
2022-09-04T15:03:33.074,4.229,6.354,4.229,7193.17,22.05,239.6,237.8,237.8,5.445,49.97,6211.06,855.67,95.0,0.0,8.49,2.83,0.0,0.001,0.002,0.03,11.03125
2022-09-04T15:05:35.0294,4.199,6.354,4.199,7193.31,22.19,244.8,238.0,238.1,5.412,49.99,6211.25,855.67,95.0,0.0,8.49,2.83,0.0,0.001,0.002,0.031,11.0325
2022-09-04T15:07:37.5611,4.188,6.354,4.188,7193.46,22.33,244.1,235.1,236.3,5.358,50.02,6211.43,855.67,95.0,0.0,8.49,2.83,0.0,0.002,0.002,0.03,11.0325
2022-09-04T15:09:39.8705,4.162,6.354,4.162,7193.6,22.48,245.3,236.3,235.8,5.357,50.0,6211.62,855.67,95.0,0.0,8.49,2.83,0.0,0.002,0.002,0.03,11.035
2022-09-04T15:11:42.1282,4.11,6.354,4.11,7193.74,22.62,245.6,236.1,235.8,5.289,50.0,6211.79,855.67,95.0,0.0,8.49,2.83,0.0,0.001,0.001,0.03,11.03625
2022-09-04T15:13:44.3259,4.089,6.354,4.089,7193.88,22.76,246.1,237.8,235.6,5.141,50.0,6211.97,855.67,95.0,0.0,8.49,2.83,0.0,0.002,0.001,0.03,11.0375
2022-09-04T15:15:46.5969,4.05,6.354,4.05,7194.02,22.9,248.3,240.1,238.3,5.124,49.99,6212.16,855.67,95.0,0.0,8.49,2.83,0.0,0.002,0.002,0.031,11.03875
2022-09-04T15:17:48.9377,4.016,6.354,4.016,7194.15,23.03,248.5,238.8,238.1,5.07,50.0,6212.33,855.67,95.0,0.0,8.49,2.83,0.0,0.002,0.002,0.03,11.04
2022-09-04T15:19:51.0636,3.973,6.354,3.973,7194.29,23.17,245.6,239.3,237.8,5.084,49.99,6212.5,855.67,95.0,0.0,8.49,2.83,0.0,0.001,0.002,0.031,11.04
2022-09-04T15:21:53.2893,3.907,6.354,3.907,7194.42,23.3,244.3,238.6,238.1,5.019,49.97,6212.66,855.67,95.0,0.0,8.49,2.83,0.0,0.001,0.002,0.031,11.04125
2022-09-04T15:23:55.4626,3.902,6.354,3.902,7194.55,23.43,242.3,237.6,241.1,5.017,49.99,6212.85,855.67,95.0,0.0,8.49,2.83,0.0,0.002,0.001,0.031,11.0425
2022-09-04T15:25:58.054,3.86,6.354,3.86,7194.69,23.57,241.0,237.1,241.6,4.982,49.99,6213.02,855.67,95.0,0.0,8.49,2.83,0.0,0.002,0.002,0.031,11.04375
2022-09-04T15:28:00.280048,3.835,6.354,3.835,7194.82,23.7,245.1,236.8,241.8,4.946,50.02,6213.18,855.67,95.0,0.0,8.49,2.83,0.0,0.001,0.001,0.031,11.04375
2022-09-04T15:30:02.554183,3.68,6.354,3.68,7194.95,23.83,246.6,239.0,241.3,4.707,50.0,6213.35,855.67,95.0,0.0,8.49,2.83,0.0,0.001,0.002,0.031,11.045
2022-09-04T15:32:04.747853,3.541,6.354,3.541,7195.07,23.95,244.3,236.6,238.1,4.524,49.99,6213.5,855.67,95.0,0.0,8.49,2.83,0.0,0.002,0.002,0.03,11.04625
2022-09-04T15:34:07.030572,3.648,6.354,3.648,7195.19,24.07,242.6,234.0,235.3,4.556,49.99,6213.66,855.67,95.0,0.0,8.49,2.83,0.0,0.001,0.002,0.03,11.0475
2022-09-04T15:36:09.226846,3.608,6.354,3.608,7195.32,24.2,245.8,237.8,239.1,4.512,49.97,6213.81,855.67,95.0,0.0,8.49,2.83,0.0,0.001,0.001,0.031,11.04875
2022-09-04T15:38:11.4814,3.618,6.354,3.618,7195.44,24.32,246.8,240.3,238.5,4.591,49.97,6213.97,855.67,95.0,0.0,8.49,2.83,0.0,0.002,0.001,0.03,11.04875
2022-09-04T15:40:13.9625,3.598,6.354,3.598,7195.56,24.44,246.3,239.5,237.8,4.586,49.97,6214.12,855.67,95.0,0.0,8.49,2.83,0.0,0.002,0.002,0.03,11.05
2022-09-04T15:42:16.5678,3.517,6.354,3.517,7195.68,24.56,247.8,238.8,238.8,4.436,49.97,6214.27,855.67,95.0,0.0,8.49,2.83,0.0,0.002,0.002,0.031,11.05125
2022-09-04T15:44:18.7968,3.526,6.354,3.526,7195.8,24.68,243.6,240.1,238.6,4.438,49.97,6214.43,855.67,95.0,0.0,8.49,2.83,0.0,0.002,0.002,0.031,11.0525
2022-09-04T15:46:21.1601,3.414,6.354,3.414,7195.92,24.8,242.1,241.0,239.1,4.272,49.97,6214.58,855.67,95.0,0.0,8.49,2.83,0.0,0.002,0.002,0.031,11.05375
2022-09-04T15:48:23.5021,3.373,6.354,3.373,7196.03,24.91,242.8,240.8,238.3,4.243,50.0,6214.72,855.67,95.0,0.0,8.49,2.83,0.0,0.001,0.002,0.031,11.055
2022-09-04T15:50:25.7101,3.32,6.354,3.32,7196.15,25.03,241.8,240.1,237.3,4.145,50.0,6214.85,855.67,95.0,0.0,8.49,2.83,0.0,0.001,0.002,0.03,11.055
2022-09-04T15:52:28.0705,3.322,6.354,3.322,7196.26,25.14,242.1,240.8,240.1,4.11,50.0,6215.0,855.67,95.0,0.0,8.49,2.83,0.0,0.002,0.002,0.031,11.05625
2022-09-04T15:54:30.2493,3.279,6.354,3.279,7196.37,25.25,241.8,236.1,236.1,4.038,50.0,6215.14,855.67,95.0,0.0,8.49,2.83,0.0,0.002,0.002,0.03,11.0575
2022-09-04T15:56:32.5528,3.186,6.354,3.186,7196.49,25.36,241.6,237.1,237.3,4.002,50.02,6215.27,855.67,95.0,0.0,8.49,2.83,0.0,0.002,0.002,0.03,11.05875
2022-09-04T15:58:34.698,3.166,6.354,3.166,7196.59,25.47,242.6,237.5,236.8,3.987,50.0,6215.41,855.67,95.0,0.0,8.49,2.83,0.0,0.002,0.002,0.03,11.06
2022-09-04T16:00:37.1886,3.092,6.354,3.092,7196.7,25.58,243.8,237.3,237.1,3.905,50.04,6215.54,855.67,95.0,0.0,8.49,2.83,0.0,0.001,0.002,0.03,11.06125
2022-09-04T16:02:39.4452,3.044,6.354,3.044,7196.8,25.68,241.1,236.8,236.3,3.805,50.02,6215.68,855.67,95.0,0.0,8.49,2.83,0.0,0.001,0.002,0.03,11.0625
2022-09-04T16:04:41.7895,3.005,6.354,3.005,7196.91,25.79,243.1,235.3,235.8,3.854,50.0,6215.81,855.67,95.0,0.0,8.49,2.83,0.0,0.001,0.002,0.03,11.065
2022-09-04T16:06:43.9897,2.966,6.354,2.966,7197.01,25.89,244.0,236.3,234.8,3.699,50.02,6215.93,855.67,95.0,0.0,8.49,2.83,0.0,0.001,0.001,0.03,11.06625
2022-09-04T16:08:46.3194,2.88,6.354,2.88,7197.11,25.99,245.1,236.3,233.6,3.737,50.0,6216.06,855.67,95.0,0.0,8.49,2.83,0.0,0.002,0.002,0.029,11.0675
2022-09-04T16:10:48.5699,2.881,6.354,2.881,7197.2,26.08,243.1,235.8,235.8,3.565,50.0,6216.18,855.67,95.0,0.0,8.49,2.83,0.0,0.002,0.002,0.03,11.06875
2022-09-04T16:12:50.8181,2.836,6.354,2.836,7197.3,26.18,243.1,235.3,236.8,3.49,50.0,6216.31,855.67,95.0,0.0,8.49,2.83,0.0,0.002,0.001,0.03,11.07
2022-09-04T16:14:53.2315,2.779,6.354,2.779,7197.4,26.27,241.8,236.8,236.8,3.45,50.02,6216.41,855.67,95.0,0.0,8.49,2.83,0.0,0.001,0.002,0.03,11.07
2022-09-04T16:16:55.4434,2.714,6.354,2.714,7197.49,26.37,242.8,235.5,237.1,3.398,50.0,6216.54,855.67,95.0,0.0,8.49,2.83,0.0,0.002,0.001,0.03,11.07125
2022-09-04T16:18:57.9682,2.647,6.354,2.647,7197.58,26.46,240.5,237.5,235.8,3.405,50.0,6216.64,855.67,95.0,0.0,8.49,2.83,0.0,0.001,0.002,0.03,11.0725
2022-09-04T16:21:00.102603,2.615,6.354,2.615,7197.67,26.55,242.6,236.3,234.5,3.382,49.97,6216.77,855.67,95.0,0.0,8.49,2.83,0.0,0.001,0.001,0.03,11.07375
2022-09-04T16:23:02.443643,2.579,6.354,2.579,7197.76,26.64,240.1,237.5,237.3,3.3,49.97,6216.87,855.67,95.0,0.0,8.49,2.83,0.0,0.001,0.002,0.03,11.075
2022-09-04T16:25:04.778377,2.522,6.354,2.522,7197.85,26.72,240.3,235.3,236.3,3.24,49.97,6216.99,855.67,95.0,0.0,8.49,2.83,0.0,0.002,0.001,0.03,11.07625
2022-09-04T16:27:07.160946,2.477,6.354,2.477,7197.93,26.81,239.8,236.8,235.3,3.184,49.97,6217.1,855.67,95.0,0.0,8.49,2.83,0.0,0.001,0.002,0.03,11.07625
2022-09-04T16:29:09.439874,2.422,6.354,2.422,7198.01,26.89,241.8,235.3,234.1,3.098,49.97,6217.2,855.67,95.0,0.0,8.49,2.83,0.0,0.002,0.002,0.03,11.0775
2022-09-04T16:31:11.6271,2.362,6.354,2.362,7198.09,26.97,239.5,237.3,235.8,2.907,50.0,6217.31,855.67,95.0,0.0,8.49,2.83,0.0,0.001,0.002,0.03,11.07875
2022-09-04T16:33:13.8251,2.312,6.354,2.312,7198.17,27.05,241.8,235.6,234.6,2.861,49.99,6217.41,855.67,95.0,0.0,8.49,2.83,0.0,0.001,0.001,0.03,11.08
2022-09-04T16:35:16.2705,2.262,6.354,2.262,7198.25,27.13,241.3,236.3,233.3,2.868,49.99,6217.5,855.67,95.0,0.0,8.49,2.83,0.0,0.002,0.002,0.03,11.08125
2022-09-04T16:37:18.5368,2.388,6.354,2.388,7198.33,27.21,241.8,236.0,233.3,3.14,49.97,6217.6,855.67,95.0,0.0,8.49,2.83,0.0,0.002,0.001,0.029,11.0825
2022-09-04T16:39:20.9186,2.402,6.354,2.402,7198.41,27.29,241.6,235.6,234.6,3.138,49.97,6217.7,855.67,95.0,0.0,8.49,2.83,0.0,0.001,0.001,0.03,11.08375
2022-09-04T16:41:23.0265,2.344,6.354,2.344,7198.49,27.37,241.8,235.8,234.6,3.078,49.97,6217.81,855.67,95.0,0.0,8.49,2.83,0.0,0.002,0.001,0.03,11.085
2022-09-04T16:43:25.2619,2.318,6.354,2.318,7198.57,27.45,240.8,234.6,234.6,3.008,49.95,6217.91,855.67,95.0,0.0,8.49,2.83,0.0,0.001,0.001,0.03,11.0875
2022-09-04T16:45:27.7408,2.246,6.354,2.246,7198.65,27.53,240.8,235.0,234.1,2.916,49.97,6218.02,855.67,95.0,0.0,8.49,2.83,0.0,0.002,0.001,0.03,11.08875
2022-09-04T16:47:30.0425,2.198,6.354,2.198,7198.72,27.6,241.3,235.6,234.8,2.83,49.95,6218.12,855.67,95.0,0.0,8.49,2.83,0.0,0.001,0.001,0.03,11.09
2022-09-04T16:49:32.5945,2.14,6.354,2.14,7198.8,27.68,242.3,235.6,235.1,2.718,49.99,6218.2,855.67,95.0,0.0,8.49,2.83,0.0,0.002,0.002,0.03,11.09
2022-09-04T16:51:34.9067,2.087,6.354,2.087,7198.87,27.75,240.3,235.6,234.1,2.628,49.97,6218.29,855.67,95.0,0.0,8.49,2.83,0.0,0.002,0.002,0.03,11.09125
2022-09-04T16:53:37.2227,2.048,6.354,2.048,7198.94,27.82,241.6,234.6,234.8,2.536,49.97,6218.39,855.67,95.0,0.0,8.49,2.83,0.0,0.001,0.002,0.03,11.0925
2022-09-04T16:55:39.3882,2.013,6.354,2.013,7199.01,27.89,241.1,235.8,235.1,2.541,49.97,6218.47,855.67,95.0,0.0,8.49,2.83,0.0,0.001,0.002,0.03,11.09375
2022-09-04T16:57:41.5758,1.96,6.354,1.96,7199.07,27.95,241.3,235.0,234.0,2.518,49.99,6218.56,855.67,95.0,0.0,8.49,2.83,0.0,0.001,0.001,0.03,11.095
2022-09-04T16:59:44.0196,1.923,6.354,1.923,7199.14,28.02,241.0,234.3,233.8,2.467,50.0,6218.64,855.67,95.0,0.0,8.49,2.83,0.0,0.001,0.002,0.03,11.09625
2022-09-04T17:01:46.3238,1.868,6.354,1.868,7199.2,28.08,240.6,235.3,234.1,2.401,50.06,6218.72,855.67,95.0,0.0,8.49,2.83,0.0,0.001,0.002,0.03,11.09625
2022-09-04T17:03:48.4667,1.786,6.354,1.786,7199.27,28.15,239.5,235.6,233.3,2.309,50.04,6218.81,855.67,95.0,0.0,8.49,2.83,0.0,0.002,0.002,0.029,11.0975
2022-09-04T17:05:49.8721,1.882,6.354,1.882,7199.33,28.21,240.6,235.3,232.0,2.389,50.02,6218.89,855.67,95.0,0.0,8.49,2.83,0.0,0.002,0.002,0.029,11.09875
2022-09-04T17:07:52.1361,1.903,6.354,1.903,7199.39,28.27,238.6,235.6,233.1,2.35,50.0,6218.97,855.67,95.0,0.0,8.49,2.83,0.0,0.001,0.002,0.029,11.1
2022-09-04T17:09:58.619,,,,,,,,,,,,,,,,,,0.001,0.002,0.029,11.10125
2022-09-04T17:11:56.0435,1.847,6.354,1.847,7199.52,28.4,239.3,234.6,230.8,2.244,49.99,6219.12,855.67,95.0,0.0,8.49,2.83,0.0,0.001,0.002,0.029,11.10125
2022-09-04T17:13:58.2651,1.81,6.354,1.81,7199.58,28.46,241.0,236.8,236.3,2.274,49.97,6219.2,855.67,95.0,0.0,8.5,2.83,0.0,0.001,0.002,0.03,11.1025
2022-09-04T17:16:00.607942,1.748,6.354,1.748,7199.64,28.52,240.3,238.0,235.3,2.196,49.97,6219.27,855.67,95.0,0.0,8.5,2.83,0.0,0.001,0.002,0.03,11.105
2022-09-04T17:18:02.754144,1.664,6.354,1.664,7199.7,28.58,241.8,235.1,233.1,2.072,50.0,6219.35,855.67,95.0,0.0,8.5,2.83,0.0,0.002,0.001,0.029,11.10625
2022-09-04T17:20:05.118473,1.605,6.354,1.605,7199.76,28.63,241.8,234.5,233.6,1.997,49.99,6219.41,855.67,95.0,0.0,8.5,2.83,0.0,0.001,0.002,0.029,11.1075
2022-09-04T17:22:07.443898,1.57,6.354,1.57,7199.81,28.69,240.6,235.1,233.8,1.95,49.97,6219.49,855.67,95.0,0.0,8.5,2.83,0.0,0.002,0.002,0.03,11.11
2022-09-04T17:24:09.581246,1.544,6.354,1.544,7199.86,28.74,241.6,235.6,232.3,1.917,49.95,6219.54,855.67,95.0,0.0,8.5,2.83,0.0,0.001,0.001,0.029,11.11
2022-09-04T17:26:12.0099,1.51,6.354,1.51,7199.91,28.79,241.0,235.3,233.1,1.866,49.97,6219.62,855.67,95.0,0.0,8.5,2.83,0.0,0.001,0.002,0.029,11.11125
2022-09-04T17:28:14.3181,1.468,6.354,1.468,7199.96,28.84,238.1,234.3,233.5,1.717,49.97,6219.66,855.67,95.0,0.0,8.5,2.83,0.0,0.002,0.002,0.029,11.1125
2022-09-04T17:30:16.8115,1.416,6.354,1.416,7200.01,28.89,239.8,235.5,233.1,1.553,49.99,6219.72,855.67,95.0,0.0,8.5,2.83,0.0,0.002,0.001,0.029,11.11375
2022-09-04T17:32:19.0254,1.344,6.354,1.344,7200.06,28.94,239.8,234.8,233.1,1.52,50.0,6219.77,855.67,95.0,0.0,8.5,2.83,0.0,0.001,0.001,0.029,11.115
2022-09-04T17:34:21.2363,1.298,6.354,1.298,7200.11,28.99,239.8,234.8,232.1,1.459,50.0,6219.83,855.67,95.0,0.0,8.5,2.83,0.0,0.001,0.002,0.029,11.115
2022-09-04T17:36:23.4824,1.261,6.354,1.261,7200.15,29.03,239.3,236.3,233.8,1.488,49.99,6219.87,855.67,95.0,0.0,8.5,2.83,0.0,0.001,0.002,0.03,11.11625
2022-09-04T17:38:25.5327,1.224,6.354,1.224,7200.19,29.07,240.3,237.3,235.1,1.411,50.0,6219.93,855.67,95.0,0.0,8.5,2.83,0.0,0.001,0.002,0.03,11.1175
2022-09-04T17:40:28.0351,1.184,6.354,1.184,7200.23,29.11,241.1,235.6,232.6,1.399,49.97,6219.97,855.67,95.0,0.0,8.5,2.83,0.0,0.001,0.002,0.029,11.11875
2022-09-04T17:42:30.3268,1.14,6.354,1.14,7200.27,29.15,240.1,236.6,232.0,1.346,49.97,6220.02,855.67,95.0,0.0,8.5,2.83,0.0,0.001,0.002,0.029,11.12
2022-09-04T17:44:32.458,1.099,6.354,1.099,7200.31,29.19,238.3,236.6,234.0,1.283,49.95,6220.06,855.67,95.0,0.0,8.5,2.83,0.0,0.001,0.002,0.03,11.12125
2022-09-04T17:46:34.8564,1.048,6.354,1.048,7200.34,29.22,238.6,236.8,231.5,1.042,49.97,6220.1,855.67,95.0,0.0,8.5,2.83,0.0,0.001,0.001,0.029,11.12125
2022-09-04T17:48:37.086,0.999,6.354,0.999,7200.38,29.26,238.0,237.3,232.3,0.996,49.97,6220.14,855.67,95.0,0.0,8.5,2.83,0.0,0.002,0.002,0.029,11.1225
2022-09-04T17:50:39.404,0.95,6.354,0.95,7200.41,29.29,238.3,236.8,232.1,1.044,49.97,6220.18,855.67,95.0,0.0,8.5,2.83,0.0,0.002,0.002,0.029,11.12375
2022-09-04T17:52:41.0805,0.904,6.354,0.904,7200.44,29.32,238.3,236.8,230.8,0.986,49.99,6220.2,855.67,95.0,0.0,8.5,2.83,0.0,0.001,0.002,0.029,11.12625
2022-09-04T17:54:43.6073,0.858,6.354,0.858,7200.47,29.35,239.1,236.6,230.3,0.921,49.97,6220.25,855.67,95.0,0.0,8.5,2.83,0.0,0.002,0.002,0.029,11.1275
2022-09-04T17:56:45.6582,0.801,6.354,0.801,7200.5,29.38,235.8,237.3,234.8,0.765,50.0,6220.27,855.67,95.0,0.0,8.5,2.83,0.0,0.001,0.002,0.03,11.1275
2022-09-04T17:58:48.1658,0.758,6.354,0.758,7200.53,29.41,235.8,234.3,231.8,0.76,50.02,6220.29,855.67,95.0,0.0,8.5,2.83,0.0,0.001,0.002,0.029,11.12875
2022-09-04T18:00:50.4396,0.726,6.354,0.726,7200.55,29.43,236.5,234.8,232.8,0.701,49.97,6220.33,855.67,95.0,0.0,8.5,2.83,0.0,0.001,0.002,0.03,11.13125
2022-09-04T18:02:52.5515,0.684,6.354,0.684,7200.58,29.46,235.3,235.5,232.6,0.634,50.0,6220.35,855.67,95.0,0.0,8.5,2.83,0.0,0.002,0.001,0.029,11.1325
2022-09-04T18:04:54.6275,0.682,6.354,1.805,7200.61,29.49,238.3,236.3,230.8,-0.075,50.0,6220.35,855.67,95.0,-1.123,8.5,2.83,0.0,0.571,0.535,0.691,11.14875
2022-09-04T18:06:56.9661,0.653,6.354,1.436,7200.67,29.55,237.6,234.6,231.3,-0.008,49.99,6220.35,855.67,95.0,-0.783,8.5,2.83,0.0,0.417,0.38,0.522,11.205