File: data/huawei/huawei_sun2000_20220901223152.csv
local_time,total_input_power,load_power,grid_power,total_battery_power,input_power,day_active_power_peak,active_power,accumulated_yield_energy,daily_yield_energy,grid_voltage_a_phase,b_phase_voltage,c_phase_voltage,power_meter_active_power,grid_frequency,grid_exported_energy,grid_accumulated_energy,storage_state_of_capacity,storage_charge_discharge_power,storage_current_day_charge_capacity,storage_current_day_discharge_capacity,system_time,backup_switch_to_off_grid,a_phase_active_power,b_phase_active_power,c_phase_active_power,forward_energy
2022-09-01T22:32:11.3403,0.0,0.558,0.069,-0.489,0.0,7.599,0.717,7105.03,30.17,228.8,237.3,234.1,-0.015,49.99,6113.47,855.14,81.0,-0.717,6.58,7.54,1662071525.0,0.0,0.001,0.001,0.03,6.58
2022-09-01T22:36:50.0814,0.0,0.688,0.095,-0.593,0.0,7.599,0.603,7105.08,30.22,230.1,236.0,233.8,-0.024,50.0,6113.47,855.14,81.0,-0.654,6.58,7.58,1662071803.0,0.0,0.001,0.002,0.03,6.5825
2022-09-01T22:41:30.5578,0.0,2.546,-0.115,-2.661,0.0,7.599,2.667,7105.26,30.39,222.8,237.3,234.8,0.065,50.0,6113.47,855.14,80.0,-2.667,6.58,7.68,1662072084.0,0.0,0.002,0.002,0.031,6.58625
2022-09-01T22:46:08.116820,0.0,2.559,0.009,-2.55,0.0,7.599,2.537,7105.46,30.6,222.8,239.3,236.5,0.0,50.0,6113.47,855.14,80.0,-2.537,6.58,7.96,1662072361.0,0.0,0.002,0.001,0.03,6.58875
2022-09-01T22:50:48.5965,0.0,2.445,0.018,-2.427,0.0,7.599,2.423,7105.65,30.79,225.3,240.3,238.1,-0.01,50.0,6113.47,855.14,79.0,-2.423,6.58,8.11,1662072641.0,0.0,0.002,0.001,0.03,6.5925
2022-09-01T22:55:26.5524,0.0,0.574,0.024,-0.55,0.0,7.599,0.66,7105.75,30.89,228.1,231.8,233.0,-0.011,50.02,6113.47,855.14,79.0,-0.64,6.58,8.34,1662072920.0,0.0,0.001,0.001,0.03,6.595
2022-09-01T23:00:08.200158,0.0,0.689,0.063,-0.626,,,,,,,,,,,,,,,,,,,0.001,0.001,0.03,6.5975
2022-09-01T23:04:46.9208,0.0,0.785,0.028,-0.757,0.0,7.599,0.764,7105.86,31.0,231.6,233.1,236.1,-0.02,49.95,6113.47,855.14,78.0,-0.764,6.58,8.51,1662073480.0,0.0,0.001,0.001,0.03,6.6
2022-09-01T23:09:23.4051,0.0,0.746,0.017,-0.729,0.0,7.599,0.628,7105.91,31.05,231.5,236.6,233.3,-0.065,50.0,6113.47,855.14,78.0,-0.628,6.58,8.57,1662073757.0,0.0,0.001,0.001,0.03,6.6025
2022-09-01T23:14:00.787850,0.0,0.536,0.018,-0.518,0.0,7.599,0.548,7105.96,31.1,231.3,237.3,231.8,-0.016,50.02,6113.47,855.14,78.0,-0.563,6.58,8.65,1662074034.0,0.0,0.001,0.001,0.03,6.60375
2022-09-01T23:18:39.6527,0.0,0.492,-0.065,-0.557,0.0,7.599,0.519,7106.01,31.15,232.6,236.3,230.3,-0.022,50.0,6113.47,855.14,78.0,-0.519,6.58,8.68,1662074314.0,0.0,0.001,0.001,0.029,6.6075
2022-09-01T23:23:19.7482,0.0,0.241,-0.002,-0.243,0.0,7.599,0.237,7106.04,31.18,233.8,236.5,232.8,0.0,50.04,6113.47,855.15,78.0,-0.238,6.58,8.76,1662074594.0,0.0,0.001,0.001,0.03,6.61
2022-09-01T23:27:59.3915,0.0,0.153,0.0,-0.153,0.0,7.599,0.157,7106.05,31.19,233.1,233.0,230.5,-0.001,50.02,6113.47,855.15,77.0,-0.157,6.58,8.8,1662074874.0,0.0,0.001,0.001,0.029,6.61375
2022-09-01T23:32:37.6671,0.0,0.112,0.002,-0.11,0.0,7.599,0.11,7106.06,31.2,233.1,232.6,229.5,0.0,49.99,6113.47,855.15,77.0,-0.111,6.58,8.82,1662075151.0,0.0,0.001,0.001,0.029,6.61625
2022-09-01T23:37:19.3022,0.0,0.11,0.002,-0.108,0.0,7.599,0.091,7106.07,31.21,231.5,232.6,231.1,0.0,50.0,6113.47,855.15,77.0,-0.091,6.58,8.85,1662075434.0,0.0,0.001,0.001,0.029,6.61875
2022-09-01T23:42:01.258866,0.0,0.183,-0.001,-0.184,0.0,7.599,0.179,7106.08,31.22,230.6,232.3,232.3,-0.002,50.0,6113.47,855.15,77.0,-0.179,6.58,8.89,1662075714.0,0.0,0.001,0.001,0.029,6.62125
2022-09-01T23:46:36.078,0.0,0.087,0.0,-0.087,0.0,7.599,0.087,7106.09,31.23,232.6,234.1,232.6,0.0,50.04,6113.47,855.15,77.0,-0.089,6.58,8.9,1662075989.0,0.0,0.001,0.001,0.03,6.6225
2022-09-01T23:51:14.8051,0.0,0.132,0.0,-0.132,0.0,7.599,0.133,7106.1,31.24,232.1,234.6,232.8,0.0,50.02,6113.47,855.15,77.0,-0.133,6.58,8.93,1662076269.0,0.0,0.001,0.001,0.03,6.625
2022-09-01T23:55:53.2402,0.0,0.133,0.0,-0.133,0.0,7.599,0.13,7106.11,31.25,229.8,233.3,231.3,0.0,50.04,6113.47,855.15,77.0,-0.13,6.58,8.94,1662076547.0,0.0,0.001,0.001,0.029,6.6275
2022-09-02T00:00:35.5295,0.0,0.231,0.001,-0.23,0.0,0.228,0.224,7106.13,0.0,228.3,234.1,232.8,-0.001,50.02,6113.47,855.15,77.0,-0.221,0.0,0.0,1662076829.0,0.0,0.001,0.001,0.029,6.63
2022-09-02T00:05:12.9918,0.0,0.13,0.001,-0.129,0.0,0.228,0.13,7106.14,0.01,231.3,236.0,233.8,-0.003,49.95,6113.47,855.15,77.0,-0.134,0.0,0.04,1662077106.0,0.0,0.001,0.001,0.03,6.63375
2022-09-02T00:09:50.4558,0.0,0.136,0.002,-0.134,0.0,0.228,0.132,7106.15,0.02,232.6,235.6,234.1,-0.001,49.97,6113.47,855.15,77.0,-0.132,0.0,0.05,1662077384.0,0.0,0.001,0.001,0.03,6.6375
2022-09-02T00:14:29.1759,0.0,0.08,-0.001,-0.081,0.0,0.228,0.079,7106.16,0.03,233.3,236.3,235.3,0.0,50.0,6113.47,855.15,77.0,-0.083,0.0,0.08,1662077662.0,0.0,0.001,0.001,0.03,6.64
2022-09-02T00:19:08.100383,0.0,0.177,0.0,-0.177,0.0,0.228,0.176,7106.17,0.04,231.6,238.3,236.8,0.001,50.0,6113.47,855.15,77.0,-0.176,0.0,0.09,1662077943.0,0.0,0.001,0.001,0.03,6.6425
2022-09-02T00:23:47.9327,0.0,0.078,0.001,-0.077,0.0,0.228,0.077,7106.18,0.05,230.6,236.0,234.1,0.0,50.0,6113.47,855.15,76.0,-0.078,0.0,0.13,1662078221.0,0.0,0.001,0.001,0.03,6.64375
2022-09-02T00:28:28.6249,0.0,0.075,0.0,-0.075,0.0,0.228,0.08,7106.19,0.06,232.8,236.8,235.8,-0.001,50.02,6113.47,855.15,76.0,-0.078,0.0,0.16,1662078503.0,0.0,0.001,0.002,0.03,6.64625
2022-09-02T00:33:02.691857,0.0,0.081,0.0,-0.081,0.0,0.228,0.078,7106.19,0.06,234.0,235.1,234.0,-0.001,50.02,6113.47,855.15,76.0,-0.078,0.0,0.18,1662078776.0,0.0,0.001,0.001,0.03,6.64875
2022-09-02T00:37:41.2677,0.0,0.177,-0.001,-0.178,0.0,0.361,0.177,7106.2,0.07,233.3,235.8,233.8,0.001,50.02,6113.47,855.15,76.0,-0.177,0.0,0.2,1662079056.0,0.0,0.001,0.001,0.03,6.65125
2022-09-02T00:42:18.3752,0.0,0.085,0.0,-0.085,0.0,0.361,0.082,7106.22,0.09,235.5,237.8,236.6,-0.001,50.02,6113.47,855.15,76.0,-0.082,0.0,0.21,1662079332.0,0.0,0.001,0.001,0.03,6.65375
2022-09-02T00:46:56.8948,0.0,0.119,0.0,-0.119,0.0,0.361,0.113,7106.22,0.09,231.3,233.3,233.0,-0.002,50.0,6113.47,855.15,76.0,-0.114,0.0,0.25,1662079610.0,0.0,0.001,0.001,0.03,6.65875
2022-09-02T00:51:35.3826,0.0,0.116,0.002,-0.114,0.0,0.361,0.113,7106.24,0.11,229.6,235.8,233.1,0.0,50.0,6113.47,855.15,76.0,-0.116,0.0,0.28,1662079889.0,0.0,0.001,0.001,0.029,6.66125
2022-09-02T00:56:09.793436,0.0,0.213,0.0,-0.213,0.0,0.361,0.213,7106.25,0.12,231.8,236.6,235.5,0.0,50.0,6113.47,855.15,76.0,-0.213,0.0,0.29,1662080164.0,0.0,0.001,0.001,0.03,6.66375
2022-09-02T01:00:50.2355,0.0,0.114,0.001,-0.113,0.0,0.361,0.112,7106.26,0.13,232.3,235.5,234.3,-0.002,49.97,6113.47,855.15,76.0,-0.112,0.0,0.33,1662080444.0,0.0,0.001,0.001,0.03,6.665
2022-09-02T01:05:28.37,0.0,0.113,0.001,-0.112,0.0,0.361,0.113,7106.27,0.14,234.3,237.3,236.1,0.0,49.97,6113.47,855.15,76.0,-0.111,0.0,0.36,1662080723.0,0.0,0.001,0.001,0.03,6.6675
2022-09-02T01:10:09.029539,0.0,0.114,0.0,-0.114,,,,,,,,,,,,,,,,,,,0.002,0.001,0.029,6.67
2022-09-02T01:14:47.3357,0.0,0.218,0.001,-0.217,0.0,0.361,0.214,7106.29,0.16,233.6,236.3,233.6,0.0,50.0,6113.47,855.15,75.0,-0.214,0.0,0.41,1662081280.0,0.0,0.001,0.001,0.03,6.6725
2022-09-02T01:19:26.0599,0.0,0.075,0.001,-0.074,0.0,0.361,0.073,7106.3,0.17,233.6,232.8,235.3,0.0,50.0,6113.47,855.15,75.0,-0.078,0.0,0.42,1662081559.0,0.0,0.001,0.001,0.03,6.675
2022-09-02T01:24:05.252566,0.0,0.072,0.001,-0.071,0.0,0.361,0.078,7106.31,0.18,233.6,234.3,235.8,0.0,49.97,6113.47,855.15,75.0,-0.078,0.0,0.45,1662081839.0,0.0,0.001,0.001,0.03,6.6775
2022-09-02T01:28:42.8934,0.0,0.079,0.0,-0.079,0.0,0.361,0.077,7106.32,0.19,234.6,236.6,235.6,-0.001,50.0,6113.47,855.15,75.0,-0.073,0.0,0.48,1662082114.0,0.0,0.001,0.001,0.03,6.68125
2022-09-02T01:33:21.6117,0.0,0.185,-0.003,-0.188,0.0,0.361,0.179,7106.32,0.19,235.3,237.1,238.0,0.002,50.0,6113.47,855.15,75.0,-0.179,0.0,0.5,1662082395.0,0.0,0.001,0.001,0.03,6.685
2022-09-02T01:38:04.374423,0.0,0.165,-0.003,-0.168,0.0,0.361,0.126,7106.34,0.21,233.5,235.6,236.1,-0.005,49.97,6113.47,855.15,75.0,-0.07,0.0,0.52,1662082679.0,0.0,0.001,0.001,0.03,6.6875
2022-09-02T01:42:43.1999,0.0,0.074,0.001,-0.073,0.0,0.361,0.077,7106.34,0.21,234.3,235.8,236.3,0.001,50.0,6113.47,855.15,75.0,-0.077,0.0,0.56,1662082956.0,0.0,0.001,0.002,0.03,6.69
2022-09-02T01:47:26.4304,0.0,0.074,0.001,-0.073,,,,,,,,,,,,,,,,,,,0.001,0.001,0.03,6.69125
2022-09-02T01:52:02.661010,0.0,0.221,-0.001,-0.222,0.0,0.361,0.221,7106.36,0.23,232.1,232.8,234.6,0.002,50.02,6113.47,855.15,75.0,-0.218,0.0,0.59,1662083516.0,0.0,0.001,0.001,0.03,6.69375
2022-09-02T01:56:39.9731,0.0,0.199,0.0,-0.199,0.0,0.361,0.187,7106.37,0.24,232.8,233.3,233.3,0.01,50.0,6113.47,855.15,75.0,-0.187,0.0,0.63,1662083793.0,0.0,0.001,0.001,0.03,6.69625
2022-09-02T02:01:17.9594,0.0,0.113,0.003,-0.11,0.0,0.361,0.112,7106.38,0.25,232.8,231.1,230.8,-0.001,49.97,6113.47,855.15,75.0,-0.116,0.0,0.64,1662084073.0,0.0,0.001,0.001,0.029,6.69875
2022-09-02T02:05:57.3742,0.0,0.117,0.003,-0.114,0.0,0.361,0.113,7106.39,0.26,236.3,236.3,235.8,0.001,50.0,6113.47,855.15,75.0,-0.116,0.0,0.67,1662084350.0,0.0,0.001,0.001,0.03,6.70125
2022-09-02T02:10:34.3393,0.0,0.111,0.0,-0.111,0.0,0.361,0.111,7106.4,0.27,232.3,232.6,232.8,-0.078,50.0,6113.47,855.15,74.0,-0.111,0.0,0.7,1662084629.0,0.0,0.001,0.001,0.029,6.70625
2022-09-02T02:15:13.7127,0.0,0.199,-0.001,-0.2,0.0,0.361,0.198,7106.42,0.28,232.8,234.8,234.6,0.0,50.0,6113.47,855.15,74.0,-0.198,0.0,0.72,1662084908.0,0.0,0.001,0.001,0.03,6.70875
2022-09-02T02:19:55.5766,0.0,0.107,0.0,-0.107,0.0,0.361,0.107,7106.42,0.29,231.6,232.3,232.0,-0.001,50.0,6113.47,855.15,74.0,-0.108,0.0,0.75,1662085190.0,0.0,0.001,0.001,0.029,6.71125
2022-09-02T02:24:32.3472,0.0,0.11,0.0,-0.11,0.0,0.361,0.111,7106.43,0.3,234.8,236.6,235.8,-0.002,50.0,6113.47,855.15,74.0,-0.111,0.0,0.77,1662085466.0,0.0,0.001,0.001,0.03,6.71375
2022-09-02T02:29:14.2599,0.0,0.065,0.001,-0.064,0.0,0.361,0.066,7106.44,0.31,233.8,236.8,235.6,0.0,50.0,6113.47,855.15,74.0,-0.066,0.0,0.79,1662085746.0,0.0,0.001,0.001,0.03,6.715
2022-09-02T02:33:48.8771,0.0,0.162,0.001,-0.161,0.0,0.361,0.158,7106.45,0.32,234.3,236.1,235.3,-0.001,50.0,6113.47,855.15,74.0,-0.159,0.0,0.82,1662086024.0,0.0,0.001,0.001,0.03,6.7175
2022-09-02T02:38:28.6924,0.0,0.068,0.001,-0.067,0.0,0.361,0.069,7106.46,0.33,231.3,234.8,233.6,0.0,49.99,6113.47,855.15,74.0,-0.069,0.0,0.84,1662086303.0,0.0,0.001,0.001,0.03,6.72
2022-09-02T02:43:07.150218,0.0,0.074,0.004,-0.07,0.0,0.361,0.062,7106.46,0.33,232.1,234.1,233.3,0.0,50.02,6113.47,855.15,74.0,-0.065,0.0,0.86,1662086583.0,0.0,0.001,0.001,0.03,6.7225
2022-09-02T02:47:44.9049,0.0,0.068,0.0,-0.068,0.0,0.361,0.066,7106.47,0.34,232.1,233.5,232.8,0.0,50.02,6113.47,855.15,74.0,-0.068,0.0,0.89,1662086859.0,0.0,0.001,0.001,0.029,6.725
2022-09-02T02:52:22.4433,0.0,0.159,0.0,-0.159,0.0,0.361,0.162,7106.48,0.35,234.3,237.3,235.3,-0.002,50.0,6113.47,855.15,74.0,-0.154,0.0,0.91,1662087137.0,0.0,0.001,0.002,0.03,6.73
2022-09-02T02:57:02.680807,0.0,0.099,0.001,-0.098,0.0,0.361,0.104,7106.49,0.36,236.5,238.3,236.1,-0.001,50.0,6113.47,855.15,74.0,-0.105,0.0,0.93,1662087418.0,0.0,0.002,0.001,0.03,6.7325
2022-09-02T03:01:41.6174,0.0,0.1,-0.001,-0.101,0.0,0.361,0.105,7106.5,0.37,233.8,235.3,234.1,-0.001,49.99,6113.47,855.15,74.0,-0.105,0.0,0.95,1662087697.0,0.0,0.001,0.001,0.03,6.735
2022-09-02T03:06:20.8951,0.0,0.104,0.0,-0.104,0.0,0.361,0.104,7106.5,0.37,233.3,233.8,233.3,-0.004,50.0,6113.47,855.15,73.0,-0.106,0.0,0.98,1662087976.0,0.0,0.001,0.001,0.03,6.73625
2022-09-02T03:10:59.0873,0.0,0.197,0.0,-0.197,0.0,0.361,0.195,7106.52,0.39,235.0,237.1,236.3,0.0,50.0,6113.47,855.15,73.0,-0.198,0.0,1.01,1662088254.0,0.0,0.001,0.001,0.03,6.73875
2022-09-02T03:15:37.7758,0.0,0.102,0.0,-0.102,0.0,0.361,0.107,7106.53,0.4,235.6,235.0,235.3,0.0,50.0,6113.47,855.15,73.0,-0.101,0.0,1.02,1662088534.0,0.0,0.001,0.001,0.03,6.74125
2022-09-02T03:20:21.4054,0.0,0.105,0.002,-0.103,0.0,0.361,0.105,7106.54,0.41,235.6,236.5,236.1,-0.001,50.0,6113.47,855.15,73.0,-0.099,0.0,1.06,1662088816.0,0.0,0.001,0.001,0.03,6.74375
2022-09-02T03:24:56.4564,0.0,0.099,0.0,-0.099,0.0,0.361,0.105,7106.54,0.41,234.6,236.8,236.0,0.0,50.0,6113.47,855.15,73.0,-0.105,0.0,1.07,1662089091.0,0.0,0.001,0.001,0.03,6.74625
2022-09-02T03:29:37.8663,0.0,0.194,0.0,-0.194,0.0,0.361,0.193,7106.56,0.43,231.6,233.5,232.5,0.0,50.0,6113.47,855.15,73.0,-0.193,0.0,1.11,1662089372.0,0.0,0.001,0.001,0.03,6.74875
2022-09-02T03:34:15.6273,0.0,0.066,0.001,-0.065,0.0,0.361,0.065,7106.57,0.44,231.6,233.3,231.8,0.0,50.0,6113.47,855.15,73.0,-0.065,0.0,1.13,1662089651.0,0.0,0.001,0.001,0.03,6.7525
2022-09-02T03:38:55.0138,0.0,0.068,0.002,-0.066,0.0,0.361,0.065,7106.57,0.44,234.1,236.1,235.3,0.0,50.0,6113.47,855.15,73.0,-0.062,0.0,1.15,1662089930.0,0.0,0.001,0.001,0.03,6.75625
2022-09-02T03:43:33.6392,0.0,0.068,0.0,-0.068,0.0,0.361,0.067,7106.58,0.45,234.3,235.5,235.8,0.0,50.0,6113.47,855.15,73.0,-0.062,0.0,1.18,1662090208.0,0.0,0.001,0.001,0.03,6.75875
2022-09-02T03:48:11.8374,0.0,0.17,0.004,-0.166,0.0,0.361,0.161,7106.59,0.46,232.8,234.1,232.3,0.0,50.0,6113.47,855.15,73.0,-0.157,0.0,1.2,1662090485.0,0.0,0.001,0.001,0.029,6.76
2022-09-02T03:52:49.8749,0.0,0.071,0.0,-0.071,0.0,0.361,0.066,7106.59,0.46,233.3,235.8,232.3,0.0,50.0,6113.47,855.15,73.0,-0.066,0.0,1.22,1662090764.0,0.0,0.001,0.001,0.029,6.7625
2022-09-02T03:57:31.4852,0.0,0.063,0.0,-0.063,0.0,0.361,0.062,7106.6,0.47,234.6,234.8,232.5,0.0,50.0,6113.47,855.15,72.0,-0.062,0.0,1.24,1662091045.0,0.0,0.001,0.001,0.029,6.765
2022-09-02T04:02:09.552231,0.0,0.098,0.001,-0.097,0.0,0.361,0.097,7106.61,0.48,234.6,234.1,232.1,0.0,50.02,6113.47,855.15,72.0,-0.099,0.0,1.25,1662091324.0,0.0,0.001,0.001,0.029,6.7675
2022-09-02T04:06:50.648,0.0,0.66,0.002,-0.658,0.0,0.669,0.653,7106.64,0.51,232.3,234.0,234.1,0.0,50.0,6113.47,855.15,72.0,-0.658,0.0,1.28,1662091605.0,0.0,0.002,0.001,0.03,6.77
2022-09-02T04:11:30.2498,0.0,0.559,-0.003,-0.562,0.0,0.669,0.562,7106.68,0.55,231.8,233.6,234.8,0.004,50.0,6113.47,855.15,72.0,-0.568,0.0,1.34,1662091885.0,0.0,0.001,0.001,0.03,6.7725
2022-09-02T04:16:08.971621,0.0,0.561,0.005,-0.556,0.0,0.669,0.56,7106.73,0.6,230.5,234.8,233.6,0.002,49.99,6113.47,855.15,72.0,-0.563,0.0,1.42,1662092164.0,0.0,0.001,0.001,0.03,6.77625
2022-09-02T04:20:47.5779,0.0,0.554,-0.008,-0.562,0.0,0.669,0.561,7106.77,0.64,231.1,234.8,234.3,0.007,50.0,6113.47,855.15,72.0,-0.556,0.0,1.46,1662092441.0,0.0,0.001,0.001,0.03,6.78
2022-09-02T04:25:25.9663,0.0,0.642,-0.001,-0.643,0.0,0.669,0.643,7106.82,0.69,228.6,233.8,233.3,0.005,50.0,6113.47,855.15,71.0,-0.643,0.0,1.54,1662092721.0,0.0,0.001,0.001,0.03,6.78125
2022-09-02T04:30:07.973157,0.0,0.559,0.0,-0.559,,,,,,,,,,,,,,,,,,,0.002,0.001,0.03,6.78375
2022-09-02T04:34:43.0622,0.0,0.556,-0.003,-0.559,0.0,0.669,0.554,7106.91,0.78,230.3,234.0,233.3,-0.001,50.0,6113.47,855.15,71.0,-0.554,0.0,1.65,1662093277.0,0.0,0.001,0.001,0.03,6.78625
2022-09-02T04:39:24.4204,0.0,0.533,0.001,-0.532,0.0,0.669,0.534,7106.95,0.82,233.6,235.5,236.3,-0.001,50.0,6113.47,855.15,71.0,-0.529,0.0,1.73,1662093559.0,0.0,0.001,0.001,0.03,6.78875
2022-09-02T04:43:59.9662,0.0,0.64,0.001,-0.639,0.0,0.669,0.626,7106.99,0.86,232.0,236.3,237.0,-0.004,49.99,6113.47,855.15,71.0,-0.626,0.0,1.76,1662093835.0,0.0,0.001,0.001,0.03,6.79125
2022-09-02T04:48:39.1535,0.0,0.6,-0.004,-0.604,0.0,0.669,0.529,7107.04,0.91,233.1,237.1,236.1,-0.001,49.99,6113.47,855.15,70.0,-0.53,0.0,1.85,1662094114.0,0.0,0.001,0.001,0.03,6.79375
2022-09-02T04:53:18.408,0.0,0.525,0.0,-0.525,0.0,0.669,0.527,7107.08,0.95,231.8,236.0,235.3,0.0,49.99,6113.47,855.15,70.0,-0.527,0.0,1.92,1662094393.0,0.0,0.002,0.001,0.03,6.79625
2022-09-02T04:57:59.0763,0.0,0.529,0.002,-0.527,0.0,0.669,0.528,7107.12,0.99,233.1,235.1,234.3,-0.001,50.0,6113.47,855.15,70.0,-0.528,0.0,1.96,1662094673.0,0.0,0.002,0.001,0.03,6.80125
2022-09-02T05:02:36.8484,0.0,0.641,0.001,-0.64,0.0,0.669,0.173,7107.16,1.03,235.3,234.3,235.8,0.0,49.99,6113.47,855.15,70.0,-0.173,0.0,2.03,1662094952.0,0.0,0.001,0.001,0.03,6.80375
2022-09-02T05:07:17.1127,0.0,0.187,-0.001,-0.188,0.0,0.669,0.099,7107.18,1.05,234.5,236.3,235.5,-0.001,50.0,6113.47,855.15,70.0,-0.1,0.0,2.06,1662095231.0,0.0,0.001,0.001,0.03,6.805
2022-09-02T05:11:52.1077,0.0,0.104,0.0,-0.104,0.0,0.669,0.099,7107.18,1.05,234.8,234.1,232.3,0.0,50.0,6113.47,855.15,70.0,-0.099,0.0,2.09,1662095507.0,0.0,0.001,0.001,0.03,6.8075
2022-09-02T05:16:31.1577,0.0,0.105,0.001,-0.104,0.0,0.669,0.099,7107.19,1.06,233.6,234.5,234.3,0.0,50.0,6113.47,855.15,70.0,-0.1,0.0,2.12,1662095786.0,0.0,0.002,0.001,0.03,6.81
2022-09-02T05:21:09.979526,0.0,0.105,-0.001,-0.106,0.0,0.669,0.207,7107.2,1.07,234.1,235.6,234.6,-0.004,50.0,6113.47,855.15,70.0,-0.207,0.0,2.13,1662096064.0,0.0,0.001,0.001,0.03,6.8125
2022-09-02T05:25:51.906,0.0,0.194,0.0,-0.194,0.0,0.669,0.193,7107.21,1.08,232.8,235.3,234.8,0.0,49.99,6113.47,855.15,70.0,-0.193,0.0,2.16,1662096346.0,0.0,0.001,0.001,0.03,6.815
2022-09-02T05:30:30.1876,0.0,0.105,-0.001,-0.106,0.0,0.669,0.099,7107.22,1.09,232.1,234.6,234.8,-0.001,50.0,6113.47,855.15,69.0,-0.103,0.0,2.2,1662096625.0,0.0,0.001,0.002,0.03,6.8175
2022-09-02T05:35:10.6548,0.0,0.097,-0.002,-0.099,0.0,0.669,0.104,7107.23,1.1,231.8,237.0,234.6,0.001,50.0,6113.47,855.15,69.0,-0.1,0.0,2.21,1662096905.0,0.0,0.001,0.001,0.03,6.82125
2022-09-02T05:39:47.5756,0.0,0.102,0.002,-0.1,0.0,0.669,0.101,7107.24,1.11,231.3,234.1,233.3,-0.001,50.0,6113.47,855.15,69.0,-0.101,0.0,2.25,1662097181.0,0.0,0.001,0.001,0.03,6.825
2022-09-02T05:44:27.7982,0.0,0.156,-0.001,-0.157,0.0,0.669,0.154,7107.25,1.12,231.6,233.3,232.1,-0.001,49.97,6113.47,855.15,69.0,-0.154,0.0,2.25,1662097463.0,0.0,0.001,0.001,0.029,6.8275
2022-09-02T05:49:07.769446,0.0,0.068,0.003,-0.065,0.0,0.669,0.066,7107.26,1.13,233.3,235.3,233.8,0.0,50.0,6113.47,855.15,69.0,-0.066,0.0,2.29,1662097742.0,0.0,0.001,0.001,0.03,6.82875
2022-09-02T05:53:47.1784,0.0,0.066,0.0,-0.066,0.0,0.669,0.064,7107.26,1.13,232.1,233.3,233.3,0.0,50.02,6113.47,855.15,69.0,-0.064,0.0,2.32,1662098021.0,0.0,0.001,0.001,0.03,6.83125
2022-09-02T05:58:24.3645,0.0,0.165,0.003,-0.162,0.0,0.669,0.163,7107.27,1.14,234.8,235.8,235.3,0.0,50.02,6113.47,855.15,69.0,-0.163,0.0,2.32,1662098298.0,0.0,0.002,0.001,0.03,6.83375
2022-09-02T06:03:04.371241,0.0,0.254,0.001,-0.253,0.0,0.669,0.25,7107.29,1.16,230.8,236.0,235.8,-0.001,50.02,6113.47,855.15,69.0,-0.252,0.0,2.36,1662098579.0,0.0,0.001,0.001,0.03,6.83625
2022-09-02T06:07:43.7562,0.0,1.225,0.003,-1.222,0.0,1.228,1.226,7107.32,1.19,227.3,236.8,236.3,-0.004,49.99,6113.47,855.15,69.0,-1.226,0.0,2.38,1662098858.0,0.0,0.001,0.001,0.03,6.83875
2022-09-02T06:12:22.3941,0.0,0.17,-0.02,-0.19,0.0,1.243,0.16,7107.39,1.26,233.8,236.1,235.1,-0.002,49.97,6113.47,855.15,68.0,-0.163,0.0,2.46,1662099137.0,0.0,0.001,0.001,0.03,6.84125
2022-09-02T06:17:04.248297,0.0,0.123,-0.016,-0.139,0.0,1.665,0.121,7107.46,1.33,230.6,232.8,235.1,0.0,50.0,6113.47,855.15,68.0,-0.121,0.0,2.56,1662099419.0,0.0,0.001,0.001,0.03,6.845
2022-09-02T06:21:45.5692,0.0,0.301,0.0,-0.301,0.0,1.665,0.277,7107.47,1.34,231.8,233.6,235.8,-0.001,50.0,6113.47,855.15,68.0,-0.277,0.0,2.61,1662099699.0,0.0,0.001,0.001,0.03,6.84875
2022-09-02T06:26:23.1379,0.0,0.126,0.0,-0.126,0.0,1.665,0.121,7107.49,1.36,231.5,235.3,233.8,0.0,50.0,6113.47,855.15,68.0,-0.121,0.0,2.65,1662099976.0,0.0,0.001,0.001,0.03,6.85125
2022-09-02T06:31:03.072372,0.0,0.12,0.0,-0.12,0.0,1.665,0.121,7107.5,1.37,232.8,235.1,236.3,0.0,50.04,6113.47,855.15,68.0,-0.121,0.0,2.67,1662100256.0,0.0,0.001,0.001,0.03,6.85375
2022-09-02T06:35:43.9013,0.006,0.123,0.002,-0.115,0.007,1.665,0.119,7107.5,1.37,233.6,234.3,235.0,-0.001,50.0,6113.47,855.15,68.0,-0.112,0.0,2.68,1662100537.0,0.0,0.001,0.001,0.03,6.855
2022-09-02T06:40:24.1265,0.026,0.203,-0.004,-0.181,0.025,1.665,0.205,7107.52,1.39,232.8,233.6,235.1,-0.002,50.0,6113.47,855.15,68.0,-0.18,0.0,2.72,1662100818.0,0.0,0.001,0.001,0.03,6.8575
2022-09-02T06:45:02.299342,0.058,0.121,0.001,-0.062,0.032,1.665,0.093,7107.53,1.4,233.8,234.8,235.6,-0.001,49.99,6113.47,855.15,68.0,-0.061,0.0,2.74,1662101097.0,0.0,0.001,0.001,0.03,6.86
2022-09-02T06:49:42.2438,0.078,0.111,0.002,-0.031,0.043,1.665,0.072,7107.54,1.41,232.0,237.6,235.8,0.0,50.0,6113.47,855.15,68.0,-0.027,0.0,2.75,1662101377.0,0.0,0.001,0.001,0.03,6.8625
2022-09-02T06:54:18.3872,0.124,0.138,0.004,-0.01,0.068,1.665,0.078,7107.54,1.41,232.8,236.0,234.8,0.0,50.0,6113.47,855.15,67.0,-0.01,0.0,2.77,1662101652.0,0.0,0.001,0.001,0.03,6.865
2022-09-02T06:58:59.356,0.181,0.293,0.005,-0.107,0.127,1.665,0.238,7107.55,1.42,232.3,236.1,234.3,-0.001,50.0,6113.47,855.15,67.0,-0.112,0.0,2.77,1662101934.0,0.0,0.001,0.001,0.03,6.86875
2022-09-02T07:03:37.7588,0.0,0.73,0.152,-0.578,0.177,1.665,1.019,7107.57,1.44,233.6,236.3,230.8,-0.127,50.02,6113.47,855.15,67.0,-0.927,0.0,2.78,1662102213.0,0.0,0.421,0.407,0.434,6.88375
2022-09-02T07:08:17.9327,0.249,1.546,0.0,-1.297,0.181,1.72,1.478,7107.68,1.55,233.3,234.1,233.1,0.0,50.0,6113.47,855.15,67.0,-1.331,0.0,2.85,1662102492.0,0.0,0.378,0.455,0.58,6.98875
2022-09-02T07:12:56.3905,0.213,2.174,0.028,-1.933,0.153,2.304,2.252,7107.83,1.7,232.3,233.3,229.6,0.005,49.97,6113.47,855.15,67.0,-2.111,0.0,3.01,1662102771.0,0.0,0.676,0.721,0.839,7.125
2022-09-02T07:17:34.8213,0.213,2.631,0.015,-2.403,0.159,2.619,2.563,7108.02,1.89,232.1,230.8,232.6,-0.01,50.0,6113.47,855.15,66.0,-2.404,0.0,3.12,1662103050.0,0.0,0.796,0.676,0.956,7.30625
2022-09-02T07:22:14.0878,0.244,2.56,0.005,-2.311,0.179,2.619,2.504,7108.22,2.08,230.3,227.8,225.8,-0.028,50.0,6113.47,855.15,65.0,-2.325,0.0,3.39,1662103328.0,0.0,0.797,0.747,0.903,7.4975
2022-09-02T07:26:52.1635,0.259,2.589,0.002,-2.328,0.0,2.619,0.0,7108.36,2.23,231.3,233.1,231.1,-2.582,50.0,6113.47,855.21,65.0,0.0,0.0,3.52,1662103605.0,0.0,0.787,0.755,0.957,7.68875
2022-09-02T07:31:27.9457,0.307,2.661,0.01,-2.344,0.233,2.619,2.606,7108.45,2.32,230.1,230.6,230.8,-0.074,50.0,6113.47,855.32,65.0,-2.332,0.0,3.6,1662103882.0,0.0,0.819,0.776,0.962,7.8825
2022-09-02T07:36:10.9277,0.528,2.85,0.014,-2.308,0.416,2.759,1.162,7108.65,2.52,233.8,234.6,234.1,-0.04,50.0,6113.47,855.33,64.0,0.204,0.0,3.83,1662104164.0,0.0,0.025,0.003,0.034,8.08
2022-09-02T07:40:47.3355,0.871,0.174,0.029,0.726,0.781,2.759,0.042,7108.66,2.53,236.3,231.6,229.8,0.0,50.0,6113.47,855.33,64.0,0.739,0.02,3.88,1662104441.0,0.0,0.001,0.001,0.029,8.0825
2022-09-02T07:45:26.9613,1.214,0.161,0.003,1.056,1.092,2.759,0.0,7108.66,2.53,232.3,232.1,232.3,-0.006,50.0,6113.47,855.33,64.0,1.092,0.06,3.88,1662104722.0,0.0,0.001,0.001,0.029,8.085
2022-09-02T07:50:09.674670,1.835,0.16,-0.299,1.376,,,,,,,,,,,,,,,,,,,0.002,0.001,0.03,8.08625
2022-09-02T07:54:45.2705,2.176,0.443,-0.129,1.604,1.612,2.759,0.0,7108.66,2.53,230.1,232.8,227.6,0.137,50.0,6113.5,855.33,65.0,1.612,0.22,3.88,1662105279.0,0.0,0.001,0.001,0.029,8.09
2022-09-02T07:59:28.5281,2.344,0.351,-0.277,1.716,1.73,2.759,0.0,7108.66,2.53,233.3,235.6,227.1,0.281,49.97,6113.52,855.33,65.0,1.732,0.37,3.88,1662105560.0,0.0,0.002,0.001,0.029,8.0925
2022-09-02T08:04:01.692316,2.511,0.337,-0.33,1.844,1.852,2.759,0.0,7108.66,2.53,231.1,233.6,232.8,0.322,49.99,6113.54,855.33,66.0,1.85,0.44,3.88,1662105835.0,0.0,0.001,0.001,0.03,8.09625
2022-09-02T08:08:41.8033,2.674,0.348,-0.36,1.966,1.972,2.759,0.0,7108.66,2.53,234.3,235.6,235.8,0.357,50.0,6113.56,855.33,66.0,1.972,0.58,3.88,1662106117.0,0.0,0.001,0.001,0.031,8.09875
2022-09-02T08:13:22.4879,2.855,0.255,-0.494,2.106,2.104,2.759,0.0,7108.66,2.53,235.8,239.1,231.8,0.499,50.0,6113.6,855.33,67.0,2.104,0.76,3.88,1662106397.0,0.0,0.001,0.001,0.03,8.10125
2022-09-02T08:18:01.335434,2.965,0.254,-0.518,2.193,2.23,2.759,0.0,7108.66,2.53,235.1,235.3,235.8,0.631,49.97,6113.64,855.33,67.0,2.228,0.86,3.88,1662106675.0,0.0,0.001,0.002,0.031,8.10375
2022-09-02T08:22:39.3871,3.134,0.224,-0.601,2.309,2.342,2.759,0.0,7108.66,2.53,236.8,235.8,237.8,0.599,50.0,6113.7,855.33,68.0,2.342,1.06,3.88,1662106954.0,0.0,0.001,0.001,0.03,8.10625
2022-09-02T08:27:19.3346,3.286,0.244,-0.621,2.421,2.467,2.759,0.0,7108.66,2.53,234.3,232.3,236.0,0.65,50.0,6113.74,855.33,68.0,2.471,1.17,3.88,1662107233.0,0.0,0.001,0.001,0.03,8.1075
2022-09-02T08:31:58.9483,3.452,0.243,-0.664,2.545,2.569,2.759,0.0,7108.66,2.53,236.0,228.5,233.6,0.6,49.99,6113.79,855.33,69.0,2.568,1.36,3.88,1662107513.0,0.0,0.002,0.001,0.031,8.11
2022-09-02T08:36:40.3151,3.598,0.324,-0.633,2.641,2.666,2.759,0.0,7108.66,2.53,236.0,230.6,232.8,0.741,50.0,6113.83,855.33,69.0,2.669,1.6,3.88,1662107794.0,0.0,0.002,0.001,0.029,8.11375
2022-09-02T08:41:19.7056,3.739,0.227,-0.761,2.751,2.78,2.759,0.0,7108.66,2.53,235.1,234.6,233.0,0.776,50.0,6113.89,855.33,70.0,2.78,1.71,3.88,1662108074.0,0.0,0.001,0.001,0.03,8.11625
2022-09-02T08:45:58.742,3.904,0.211,-0.817,2.876,2.905,2.759,0.0,7108.66,2.53,235.8,234.3,233.3,0.813,49.97,6113.95,855.33,70.0,2.905,1.93,3.88,1662108352.0,0.0,0.001,0.001,0.03,8.12
2022-09-02T08:50:37.7015,4.032,0.219,-0.841,2.972,2.982,2.759,0.0,7108.66,2.53,237.3,237.8,234.6,0.753,50.0,6114.02,855.33,71.0,2.992,2.21,3.88,1662108632.0,0.0,0.002,0.001,0.03,8.1225
2022-09-02T08:55:15.5334,4.166,0.305,-0.792,3.069,3.092,2.759,0.0,7108.66,2.53,237.8,236.1,232.3,0.798,50.0,6114.08,855.33,72.0,3.099,2.35,3.88,1662108910.0,0.0,0.001,0.001,0.029,8.125
2022-09-02T08:59:56.1292,4.341,0.235,-0.922,3.184,3.197,2.759,0.0,7108.66,2.53,239.8,234.6,230.1,0.92,50.0,6114.16,855.33,72.0,3.188,2.63,3.88,1662109190.0,0.0,0.001,0.001,0.029,8.1275
2022-09-02T09:04:37.7696,4.45,0.165,-1.002,3.283,3.297,2.759,0.0,7108.66,2.53,240.8,236.1,233.1,1.003,49.97,6114.22,855.33,73.0,3.302,2.79,3.88,1662109472.0,0.0,0.002,0.001,0.03,8.12875
2022-09-02T09:09:17.8909,4.575,0.157,-1.045,3.373,3.395,2.759,0.0,7108.66,2.53,239.1,235.8,231.3,0.943,50.0,6114.31,855.33,74.0,3.393,3.03,3.88,1662109753.0,0.0,0.002,0.001,0.03,8.13125
2022-09-02T09:13:56.5625,4.694,0.256,-0.975,3.463,3.489,2.759,0.0,7108.66,2.53,239.8,232.6,233.8,0.993,50.0,6114.39,855.33,75.0,3.489,3.35,3.88,1662110031.0,0.0,0.002,0.002,0.03,8.135
2022-09-02T09:18:34.664,4.862,0.166,-1.106,3.59,3.601,2.759,0.0,7108.66,2.53,241.1,235.6,234.8,1.103,49.99,6114.47,855.33,75.0,3.599,3.53,3.88,1662110309.0,0.0,0.002,0.002,0.03,8.1375
2022-09-02T09:23:11.6619,4.969,0.194,-1.121,3.654,3.694,2.759,0.0,7108.66,2.53,238.3,238.1,232.8,1.034,50.0,6114.56,855.33,76.0,3.694,3.78,3.88,1662110585.0,0.0,0.002,0.001,0.03,8.14
2022-09-02T09:27:52.2026,5.084,0.248,-1.075,3.761,3.772,2.759,0.0,7108.66,2.53,240.3,234.1,233.8,1.08,50.0,6114.64,855.33,77.0,3.772,4.09,3.88,1662110867.0,0.0,0.002,0.002,0.03,8.14375
2022-09-02T09:32:27.9618,5.238,0.384,-0.986,3.868,3.863,2.759,0.0,7108.66,2.53,238.6,236.3,234.3,0.994,49.99,6114.7,855.33,78.0,3.863,4.45,3.88,1662111143.0,0.0,0.001,0.001,0.03,8.14625
2022-09-02T09:37:09.604297,5.322,0.286,-1.105,3.931,3.958,2.759,0.0,7108.66,2.53,241.6,234.6,234.8,1.088,50.0,6114.79,855.33,79.0,3.967,4.64,3.88,1662111424.0,0.0,0.002,0.001,0.03,8.1475
2022-09-02T09:41:49.0306,5.414,0.269,-1.125,4.02,4.059,2.759,0.0,7108.66,2.53,242.1,234.1,232.1,1.131,50.02,6114.87,855.33,79.0,4.063,5.0,3.88,1662111703.0,0.0,0.002,0.002,0.03,8.15
2022-09-02T09:46:25.9847,5.582,0.321,-1.141,4.12,4.137,2.759,0.0,7108.66,2.53,244.3,237.3,232.0,1.161,49.97,6114.97,855.33,80.0,4.137,5.14,3.88,1662111980.0,0.0,0.002,0.001,0.03,8.1525
2022-09-02T09:51:05.985538,5.669,0.418,-1.059,4.192,4.206,2.759,0.0,7108.66,2.53,245.6,238.6,234.1,1.072,50.0,6115.06,855.33,81.0,4.204,5.54,3.88,1662112260.0,0.0,0.002,0.002,0.03,8.15625
2022-09-02T09:55:44.5026,5.757,0.259,-1.251,4.247,4.3,2.759,0.0,7108.66,2.53,240.3,236.8,233.6,1.257,50.02,6115.14,855.33,82.0,4.3,5.94,3.88,1662112538.0,0.0,0.002,0.001,0.03,8.15875
2022-09-02T10:00:22.8842,5.86,0.247,-1.278,4.335,4.381,2.759,0.0,7108.66,2.53,245.6,239.8,234.6,1.297,50.02,6115.25,855.33,83.0,4.38,6.14,3.88,1662112816.0,0.0,0.002,0.001,0.03,8.1625
2022-09-02T10:04:59.0518,6.023,0.25,-1.314,4.459,4.477,2.759,0.0,7108.66,2.53,244.3,237.8,235.3,1.32,50.02,6115.35,855.33,84.0,4.475,6.48,3.88,1662113092.0,0.0,0.002,0.001,0.03,8.165
2022-09-02T10:09:35.326,6.131,0.305,-1.294,4.532,4.551,2.759,0.0,7108.66,2.53,241.8,236.1,234.1,1.29,49.97,6115.45,855.33,85.0,4.551,6.69,3.88,1662113370.0,0.0,0.002,0.002,0.03,8.16625
2022-09-02T10:14:15.0775,6.216,0.212,-1.402,4.602,4.602,2.759,0.0,7108.66,2.53,245.0,235.8,235.8,1.403,50.0,6115.54,855.33,86.0,4.602,7.13,3.88,1662113649.0,0.0,0.002,0.001,0.03,8.16875
2022-09-02T10:18:58.6124,6.302,0.213,-1.422,4.667,4.688,2.759,0.0,7108.66,2.53,244.3,237.8,236.3,1.431,50.02,6115.66,855.33,87.0,4.69,7.53,3.88,1662113933.0,0.0,0.001,0.001,0.03,8.17125
2022-09-02T10:23:37.2571,6.387,0.2,-1.447,4.74,4.766,2.759,0.0,7108.66,2.53,246.1,237.6,237.1,1.454,50.02,6115.77,855.33,88.0,4.766,7.73,3.88,1662114211.0,0.0,0.002,0.002,0.03,8.17375
2022-09-02T10:28:16.9604,6.493,0.332,-1.344,4.817,4.845,2.759,0.0,7108.66,2.53,245.8,235.0,236.8,1.416,50.02,6115.87,855.33,89.0,4.847,8.17,3.88,1662114491.0,0.0,0.002,0.001,0.031,8.1775
2022-09-02T10:32:53.8602,6.619,0.298,-1.411,4.91,4.568,2.759,0.0,7108.66,2.53,244.8,235.1,237.6,1.327,49.97,6115.99,855.33,90.0,4.569,8.6,3.88,1662114766.0,0.0,0.001,0.002,0.03,8.18
2022-09-02T10:37:33.1144,6.627,0.346,-1.354,4.927,4.896,2.759,0.0,7108.66,2.53,242.8,237.6,237.3,1.318,50.0,6116.08,855.33,92.0,4.795,8.83,3.88,1662115046.0,0.0,0.002,0.001,0.03,8.1825
2022-09-02T10:42:13.427,6.734,0.336,-1.544,4.854,4.975,2.759,0.116,7108.7,2.57,244.8,237.3,233.8,1.499,50.0,6116.24,855.33,93.0,4.896,9.22,3.88,1662115327.0,0.0,0.002,0.002,0.03,8.18625
2022-09-02T10:46:52.7829,6.751,0.417,-1.325,5.009,5.014,2.759,0.0,7108.7,2.57,242.3,235.0,229.8,1.303,50.0,6116.35,855.33,95.0,5.029,9.45,3.88,1662115607.0,0.0,0.001,0.001,0.029,8.18875
2022-09-02T10:51:30.3471,6.679,0.324,-6.355,0.0,4.938,4.942,4.938,7109.06,2.93,250.1,242.6,237.1,6.357,50.0,6116.81,855.33,95.0,0.0,9.75,3.88,1662115884.0,0.0,0.002,0.002,0.031,8.19125
2022-09-02T10:56:10.1641,6.744,0.328,-6.416,0.0,4.997,4.999,4.997,7109.44,3.31,250.3,242.3,240.3,6.445,50.0,6117.31,855.33,95.0,0.0,9.75,3.88,1662116164.0,0.0,0.002,0.001,0.031,8.1925
2022-09-02T11:00:49.9752,6.796,0.342,-6.454,0.0,5.033,5.033,5.033,7109.83,3.7,246.3,245.6,239.8,6.494,49.97,6117.81,855.33,95.0,0.0,9.75,3.88,1662116444.0,0.0,0.001,0.002,0.031,8.195
2022-09-02T11:05:30.5795,6.862,0.434,-6.428,0.0,5.059,5.063,5.059,7110.22,4.09,246.1,242.8,239.0,6.43,49.93,6118.31,855.33,95.0,0.0,9.75,3.88,1662116725.0,0.0,0.002,0.002,0.031,8.19875
2022-09-02T11:10:11.9584,6.868,0.356,-6.512,0.0,,,,,,,,,,,,,,,,,,,0.002,0.002,0.031,8.20125
2022-09-02T11:14:53.2777,6.916,0.276,-6.64,0.0,5.126,5.127,5.126,7111.01,4.88,246.8,238.3,236.1,6.651,50.0,6119.33,855.33,95.0,0.0,9.75,3.88,1662117287.0,0.0,0.001,0.002,0.029,8.205
2022-09-02T11:19:31.6427,6.975,0.271,-6.704,0.0,5.161,5.165,5.161,7111.41,5.28,245.1,239.3,237.1,6.71,50.0,6119.85,855.33,95.0,0.0,9.75,3.88,1662117565.0,0.0,0.002,0.002,0.031,8.2075
2022-09-02T11:24:10.0796,7.033,0.396,-6.637,0.0,5.206,5.209,5.206,7111.82,5.69,248.0,242.3,237.8,6.639,50.0,6120.35,855.33,95.0,0.0,9.75,3.88,1662117844.0,0.0,0.002,0.002,0.031,8.21
2022-09-02T11:28:49.6649,7.058,0.289,-6.769,0.0,5.217,5.227,5.217,7112.22,6.09,246.0,243.1,239.6,6.772,50.02,6120.87,855.33,95.0,0.0,9.75,3.88,1662118123.0,0.0,0.001,0.002,0.031,8.2125
2022-09-02T11:33:30.467,7.084,0.306,-6.778,0.0,5.232,5.259,5.232,7112.63,6.5,244.6,241.1,239.1,6.783,50.0,6121.41,855.33,95.0,0.0,9.75,3.88,1662118404.0,0.0,0.002,0.002,0.031,8.215
2022-09-02T11:38:08.578359,7.161,0.324,-6.837,0.0,5.3,5.306,5.3,7113.04,6.91,243.1,240.6,240.1,6.839,50.0,6121.93,855.33,95.0,0.0,9.75,3.88,1662118682.0,0.0,0.001,0.001,0.031,8.2175
2022-09-02T11:42:46.0555,6.959,0.428,-6.531,0.0,5.087,5.346,5.087,7113.45,7.31,242.6,240.3,239.3,6.554,50.0,6122.45,855.33,95.0,0.0,9.75,3.88,1662118960.0,0.0,0.002,0.002,0.031,8.22125
2022-09-02T11:47:22.8427,7.222,0.337,-6.885,0.0,5.336,5.349,5.336,7113.85,7.71,243.6,239.8,238.8,6.896,49.97,6122.97,855.33,95.0,0.0,9.76,3.88,1662119235.0,0.0,0.002,0.001,0.031,8.22375
2022-09-02T11:52:04.005071,7.17,0.301,-6.869,0.0,5.326,5.351,5.326,7114.26,8.13,245.1,239.6,238.6,6.846,50.0,6123.5,855.33,95.0,0.0,9.76,3.88,1662119517.0,0.0,0.002,0.001,0.031,8.2275
2022-09-02T11:56:43.9188,7.22,0.327,-6.893,0.0,5.348,5.36,5.348,7114.68,8.54,244.8,240.3,240.8,6.922,49.97,6124.04,855.33,95.0,0.0,9.76,3.88,1662119797.0,0.0,0.001,0.002,0.031,8.23
2022-09-02T12:01:23.0585,7.258,1.388,-5.87,0.0,5.373,5.387,5.373,7115.09,8.96,248.3,241.6,237.6,5.834,49.99,6124.54,855.33,95.0,0.0,9.76,3.88,1662120077.0,0.0,0.001,0.001,0.03,8.2325
2022-09-02T12:06:04.634935,7.263,1.001,-6.262,0.0,5.393,5.406,5.393,7115.51,9.38,248.1,241.1,237.3,6.268,50.0,6125.02,855.33,95.0,0.0,9.76,3.88,1662120358.0,0.0,0.002,0.001,0.031,8.23375
2022-09-02T12:10:45.8679,7.316,1.269,-6.047,0.0,5.424,5.437,5.424,7115.93,9.8,247.0,240.1,236.8,6.046,49.97,6125.49,855.33,95.0,0.0,9.76,3.88,1662120639.0,0.0,0.003,0.002,0.031,8.23625
2022-09-02T12:15:25.9681,,,,,5.464,5.464,5.464,7116.36,10.22,247.8,245.6,242.3,7.134,50.02,6125.97,855.33,95.0,0.0,9.76,3.88,1662120919.0,0.0,0.002,0.002,0.031,8.23875
2022-09-02T12:20:00.555881,7.377,0.324,-7.053,0.0,5.467,5.486,5.467,7116.78,10.65,246.3,243.3,241.3,7.054,50.0,6126.5,855.33,95.0,0.0,9.76,3.88,1662121193.0,0.0,0.001,0.002,0.031,8.2425
2022-09-02T12:24:40.4973,7.506,0.221,-7.285,0.0,5.409,5.591,5.409,7117.21,11.08,246.6,244.8,241.1,7.093,50.02,6127.06,855.33,95.0,0.0,9.76,3.88,1662121475.0,0.0,0.001,0.002,0.031,8.24625
2022-09-02T12:29:18.4364,6.491,0.014,-6.477,0.0,5.25,5.592,5.25,7117.61,11.48,246.8,241.8,239.6,6.778,50.02,6127.6,855.33,95.0,0.0,9.76,3.88,1662121752.0,0.0,0.002,0.001,0.031,8.24875
2022-09-02T12:33:58.294,6.422,0.171,-6.251,0.0,4.621,5.592,4.621,7118.0,11.87,249.1,241.6,239.1,6.29,50.02,6128.1,855.33,95.0,0.0,9.76,3.88,1662122032.0,0.0,0.001,0.001,0.03,8.25125
2022-09-02T12:38:35.6587,7.283,0.363,-6.92,0.0,5.133,5.592,5.133,7118.4,12.27,247.3,244.1,238.0,6.612,49.99,6128.62,855.33,95.0,0.0,9.76,3.88,1662122309.0,0.0,0.001,0.002,0.03,8.25375
2022-09-02T12:43:12.8091,7.32,0.001,-7.319,0.0,5.442,5.592,5.442,7118.8,12.67,243.6,240.5,236.5,7.11,50.02,6129.14,855.33,95.0,0.0,9.76,3.88,1662122585.0,0.0,0.002,0.002,0.03,8.25625
2022-09-02T12:47:52.9898,6.443,0.249,-6.194,0.0,4.147,5.592,4.147,7119.18,13.05,242.8,238.8,236.0,5.916,50.02,6129.66,855.33,95.0,0.0,9.77,3.88,1662122867.0,0.0,0.002,0.001,0.03,8.25875
2022-09-02T12:52:32.6115,7.317,0.173,-7.144,0.0,5.397,5.592,5.397,7119.57,13.44,248.3,239.5,234.8,7.044,50.0,6130.16,855.33,95.0,0.0,9.78,3.88,1662123147.0,0.0,0.001,0.001,0.029,8.26125
2022-09-02T12:57:10.1614,6.67,0.329,-6.341,0.0,4.917,5.592,4.917,7119.98,13.85,246.5,238.8,235.6,6.272,50.02,6130.7,855.33,95.0,0.0,9.78,3.88,1662123424.0,0.0,0.001,0.001,0.03,8.265
2022-09-02T13:01:47.9872,6.928,0.123,-6.805,0.0,5.185,5.592,5.185,7120.35,14.22,246.6,241.3,240.3,6.705,50.0,6131.18,855.33,95.0,0.0,9.78,3.88,1662123703.0,0.0,0.002,0.002,0.03,8.2675
2022-09-02T13:06:27.7344,6.272,0.108,-6.164,0.0,4.719,5.793,4.719,7120.76,14.63,246.6,240.6,237.1,6.154,49.97,6131.72,855.33,95.0,0.0,9.78,3.88,1662123982.0,0.0,0.001,0.001,0.03,8.27
2022-09-02T13:11:07.702589,6.421,0.253,-6.168,0.0,4.678,5.793,4.678,7121.07,14.94,245.6,242.3,238.1,6.01,49.97,6132.1,855.33,95.0,0.0,9.78,3.88,1662124262.0,0.0,0.002,0.002,0.03,8.2725
2022-09-02T13:15:46.6612,6.673,0.394,-6.279,0.0,5.039,5.793,5.039,7121.45,15.32,245.1,239.8,237.8,6.476,50.0,6132.6,855.33,95.0,0.0,9.78,3.88,1662124541.0,0.0,0.002,0.001,0.031,8.275
2022-09-02T13:20:25.7306,7.247,0.266,-6.981,0.0,5.331,5.793,5.331,7121.84,15.71,242.8,234.8,240.5,7.02,50.02,6133.12,855.33,95.0,0.0,9.78,3.88,1662124821.0,0.0,0.002,0.001,0.031,8.2775
2022-09-02T13:25:08.194823,7.104,0.247,-6.857,0.0,,,,,,,,,,,,,,,,,,,0.001,0.001,0.031,8.28
2022-09-02T13:29:43.6834,4.764,0.289,-4.475,0.0,3.497,5.793,3.497,7122.64,16.51,238.8,236.3,239.1,4.314,50.02,6134.14,855.33,95.0,0.0,9.78,3.88,1662125378.0,0.0,0.001,0.001,0.031,8.2825
2022-09-02T13:34:21.4511,5.204,0.123,-5.081,0.0,3.916,5.793,3.916,7122.93,16.8,244.3,240.1,238.3,5.19,50.0,6134.52,855.33,95.0,0.0,9.78,3.88,1662125656.0,0.0,0.001,0.001,0.03,8.28625
2022-09-02T13:39:01.472883,7.587,0.171,-7.416,0.0,5.577,5.885,5.577,7123.35,17.22,250.5,244.3,240.8,7.308,50.02,6135.08,855.33,95.0,0.0,9.79,3.88,1662125937.0,0.0,0.002,0.002,0.031,8.29
2022-09-02T13:43:42.8808,6.405,0.275,-6.13,0.0,4.009,5.885,4.009,7123.76,17.62,241.3,242.5,237.6,5.198,50.0,6135.6,855.33,95.0,0.0,9.79,3.88,1662126217.0,0.0,0.001,0.001,0.031,8.2925
2022-09-02T13:48:20.1669,5.849,0.177,-5.672,0.0,4.294,5.885,4.294,7124.1,17.97,242.8,240.3,239.1,5.627,50.0,6136.06,855.33,95.0,0.0,9.79,3.88,1662126495.0,0.0,0.001,0.001,0.031,8.295
2022-09-02T13:53:02.528693,3.671,0.155,-3.516,0.0,2.552,5.885,2.552,7124.36,18.23,243.8,237.1,234.6,3.766,50.0,6136.39,855.33,95.0,0.0,9.79,3.88,1662126778.0,0.0,0.002,0.001,0.03,8.2975
2022-09-02T13:57:41.389,7.762,0.234,-7.528,0.0,5.726,5.885,5.726,7124.76,18.63,251.3,241.6,238.3,7.541,50.02,6136.91,855.33,95.0,0.0,9.8,3.88,1662127057.0,0.0,0.002,0.002,0.03,8.3
2022-09-02T14:02:21.1263,4.977,0.176,-4.801,0.0,3.823,5.885,3.823,7125.1,18.97,240.3,242.6,234.8,4.951,49.97,6137.35,855.33,95.0,0.0,9.8,3.88,1662127335.0,0.0,0.001,0.001,0.03,8.3025
2022-09-02T14:06:57.963,4.635,0.307,-4.328,0.0,3.411,5.885,3.411,7125.35,19.22,238.1,240.3,235.8,4.286,49.97,6137.68,855.33,95.0,0.0,9.8,3.88,1662127613.0,0.0,0.001,0.001,0.03,8.30375
2022-09-02T14:11:36.5412,3.698,0.337,-3.361,0.0,2.7,5.885,2.7,7125.57,19.44,239.8,238.8,234.3,3.375,49.99,6137.95,855.33,95.0,0.0,9.8,3.88,1662127891.0,0.0,0.001,0.002,0.029,8.3075
2022-09-02T14:16:15.6998,4.409,0.21,-4.199,0.0,3.167,5.885,3.167,7125.79,19.66,242.1,241.6,235.5,4.098,50.0,6138.24,855.33,95.0,0.0,9.8,3.88,1662128169.0,0.0,0.001,0.001,0.03,8.31125
2022-09-02T14:20:56.9462,5.612,0.228,-5.384,0.0,4.21,5.885,4.21,7126.09,19.96,246.6,240.3,239.1,5.668,50.0,6138.62,855.33,95.0,0.0,9.8,3.88,1662128450.0,0.0,0.001,0.001,0.03,8.31375
2022-09-02T14:25:33.7144,3.586,0.184,-3.402,0.0,2.208,5.885,2.208,7126.38,20.25,238.1,235.6,236.6,2.705,49.97,6139.0,855.33,95.0,0.0,9.8,3.88,1662128728.0,0.0,0.001,0.002,0.03,8.31625
2022-09-02T14:30:14.9833,3.388,0.356,-3.032,0.0,2.461,5.885,2.461,7126.56,20.42,237.0,236.8,236.8,3.062,49.97,6139.22,855.33,95.0,0.0,9.8,3.88,1662129009.0,0.0,0.002,0.002,0.03,8.31875
2022-09-02T14:34:52.798,4.162,0.013,-4.149,0.0,3.389,5.885,3.389,7126.77,20.64,246.1,235.6,236.6,4.581,50.0,6139.5,855.33,95.0,0.0,9.8,3.88,1662129285.0,0.0,0.002,0.001,0.03,8.32125
2022-09-02T14:39:33.3725,4.582,0.145,-4.437,0.0,3.36,5.885,3.36,7127.12,20.99,241.6,234.8,235.8,4.243,49.99,6139.95,855.33,95.0,0.0,9.8,3.88,1662129568.0,0.0,0.002,0.001,0.03,8.32375
2022-09-02T14:44:12.7398,3.719,0.171,-3.548,0.0,3.317,5.885,3.317,7127.35,21.22,240.1,238.6,235.8,4.482,50.0,6140.25,855.33,95.0,0.0,9.8,3.88,1662129848.0,0.0,0.002,0.002,0.03,8.32625
2022-09-02T14:48:53.0489,6.263,0.448,-5.815,0.0,3.883,5.885,3.883,7127.71,21.58,243.8,237.5,237.5,5.121,50.0,6140.72,855.33,95.0,0.0,9.8,3.88,1662130128.0,0.0,0.001,0.002,0.03,8.32875
2022-09-02T14:53:34.099,4.22,0.103,-4.117,0.0,3.944,5.885,3.944,7127.97,21.84,242.1,238.6,235.8,5.103,50.0,6141.06,855.33,95.0,0.0,9.8,3.88,1662130409.0,0.0,0.001,0.002,0.03,8.33125
2022-09-02T14:58:12.4765,1.96,0.18,-1.78,0.0,1.639,5.885,1.639,7128.13,22.0,236.1,237.5,233.6,2.12,50.0,6141.27,855.33,95.0,0.0,9.81,3.88,1662130688.0,0.0,0.001,0.002,0.03,8.335
2022-09-02T15:02:51.6969,2.809,0.046,-2.763,0.0,2.858,5.885,2.858,7128.31,22.18,241.8,238.3,235.3,3.91,49.99,6141.5,855.33,95.0,0.0,9.81,3.88,1662130966.0,0.0,0.002,0.001,0.03,8.3375
2022-09-02T15:07:34.2447,4.802,0.415,-4.387,0.0,2.877,5.885,2.877,7128.59,22.46,240.3,240.3,237.1,3.723,49.97,6141.87,855.33,95.0,0.0,9.81,3.88,1662131248.0,0.0,0.001,0.002,0.03,8.34
2022-09-02T15:12:11.0099,3.05,0.082,-2.968,0.0,2.394,5.885,2.394,7128.77,22.64,240.1,240.1,232.1,3.039,49.95,6142.1,855.33,95.0,0.0,9.81,3.88,1662131525.0,0.0,0.001,0.002,0.029,8.3425
2022-09-02T15:16:49.8342,3.925,0.0,-3.925,0.0,3.459,5.885,3.459,7128.93,22.8,244.1,240.6,232.3,4.539,49.97,6142.31,855.33,95.0,0.0,9.81,3.88,1662131804.0,0.0,0.001,0.002,0.03,8.345
2022-09-02T15:21:28.9939,6.244,0.18,-6.064,0.0,4.624,5.885,4.624,7129.24,23.11,251.3,240.3,233.8,6.08,49.97,6142.72,855.33,95.0,0.0,9.81,3.88,1662132083.0,0.0,0.001,0.002,0.029,8.3475
2022-09-02T15:26:06.980097,6.335,0.278,-6.057,0.0,4.633,5.885,4.633,7129.6,23.47,246.3,244.1,236.5,6.117,49.97,6143.18,855.33,95.0,0.0,9.81,3.88,1662132362.0,0.0,0.001,0.002,0.03,8.35
2022-09-02T15:30:47.2578,5.008,0.233,-4.775,0.0,3.617,5.885,3.617,7129.96,23.83,241.1,243.8,235.6,4.791,49.97,6143.66,855.33,95.0,0.0,9.81,3.88,1662132642.0,0.0,0.001,0.002,0.03,8.3525
2022-09-02T15:35:23.091,5.733,0.123,-5.61,0.0,4.443,5.885,4.443,7130.28,24.15,243.8,242.8,237.3,5.821,49.97,6144.08,855.33,95.0,0.0,9.81,3.88,1662132917.0,0.0,0.001,0.002,0.03,8.35625
2022-09-02T15:40:04.096249,6.058,0.136,-5.922,0.0,4.46,5.885,4.46,7130.63,24.49,248.8,239.8,236.6,5.889,50.0,6144.54,855.33,95.0,0.0,9.81,3.88,1662133198.0,0.0,0.001,0.002,0.03,8.35875
2022-09-02T15:44:42.5737,5.69,0.204,-5.486,0.0,4.221,5.885,4.221,7130.96,24.83,247.8,238.3,234.3,5.491,49.97,6144.99,855.33,95.0,0.0,9.81,3.88,1662133476.0,0.0,0.002,0.001,0.03,8.36125
2022-09-02T15:49:24.5118,4.506,0.056,-4.45,0.0,3.408,5.885,3.408,7131.27,25.14,239.0,239.6,234.8,4.537,49.97,6145.39,855.33,95.0,0.0,9.81,3.88,1662133758.0,0.0,0.001,0.001,0.03,8.36375
2022-09-02T15:54:01.719087,4.789,0.137,-4.652,0.0,3.556,5.885,3.556,7131.53,25.4,241.0,240.8,234.0,4.672,50.0,6145.72,855.33,95.0,0.0,9.81,3.88,1662134034.0,0.0,0.002,0.001,0.03,8.36625
2022-09-02T15:58:40.5757,4.187,0.069,-4.118,0.0,3.095,5.885,3.095,7131.77,25.64,243.6,237.6,234.6,4.172,50.0,6146.04,855.33,95.0,0.0,9.82,3.88,1662134315.0,0.0,0.001,0.001,0.029,8.36875
2022-09-02T16:03:20.0765,4.451,0.26,-4.191,0.0,3.245,5.885,3.245,7132.04,25.91,242.8,237.8,233.3,4.073,50.0,6146.39,855.33,95.0,0.0,9.82,3.88,1662134594.0,0.0,0.002,0.001,0.03,8.37125
2022-09-02T16:07:56.9595,3.74,0.161,-3.579,0.0,3.098,5.885,3.098,7132.26,26.13,240.8,237.6,237.8,3.843,50.0,6146.68,855.33,95.0,0.0,9.82,3.88,1662134872.0,0.0,0.001,0.002,0.03,8.37375
2022-09-02T16:12:36.43,5.13,0.199,-4.931,0.0,3.894,5.885,3.894,7132.54,26.41,244.3,238.6,237.6,4.968,49.99,6147.04,855.33,95.0,0.0,9.83,3.88,1662135151.0,0.0,0.002,0.001,0.03,8.37625
2022-09-02T16:17:14.3582,4.428,0.231,-4.197,0.0,3.158,5.885,3.158,7132.82,26.69,242.8,238.3,237.3,3.975,50.04,6147.39,855.33,95.0,0.0,9.83,3.88,1662135428.0,0.0,0.001,0.002,0.03,8.38
2022-09-02T16:21:53.566,3.997,0.229,-3.768,0.0,3.053,5.885,3.053,7133.06,26.93,242.1,237.8,234.8,3.784,49.99,6147.7,855.33,95.0,0.0,9.83,3.88,1662135708.0,0.0,0.001,0.002,0.03,8.3825
2022-09-02T16:26:34.2358,4.137,0.161,-3.976,0.0,3.13,5.885,3.13,7133.31,27.18,242.1,237.8,237.1,4.003,49.95,6148.0,855.33,95.0,0.0,9.83,3.88,1662135988.0,0.0,0.001,0.002,0.03,8.385
2022-09-02T16:31:13.8691,3.81,0.134,-3.676,0.0,2.911,5.885,2.911,7133.53,27.4,244.1,235.8,236.6,3.726,49.99,6148.29,855.33,95.0,0.0,9.83,3.88,1662136267.0,0.0,0.002,0.001,0.03,8.3875
2022-09-02T16:35:54.1179,2.96,0.203,-2.757,0.0,2.185,5.885,2.185,7133.73,27.6,240.8,236.3,235.6,2.803,49.97,6148.54,855.33,95.0,0.0,9.83,3.88,1662136548.0,0.0,0.001,0.001,0.03,8.39
2022-09-02T16:40:35.5235,3.701,0.257,-3.444,0.0,2.667,5.885,2.667,7133.92,27.79,243.6,236.8,236.1,3.425,49.95,6148.79,855.33,95.0,0.0,9.83,3.88,1662136830.0,0.0,0.001,0.001,0.03,8.3925
2022-09-02T16:45:16.779,3.476,0.14,-3.336,0.0,2.487,5.885,2.487,7134.12,27.99,239.8,235.1,234.8,3.306,49.95,6149.06,855.33,95.0,0.0,9.83,3.88,1662137110.0,0.0,0.001,0.001,0.03,8.39625
2022-09-02T16:49:50.0969,3.278,0.145,-3.133,0.0,2.357,5.885,2.357,7134.31,28.18,241.8,236.6,233.3,3.107,50.0,6149.29,855.33,95.0,0.0,9.83,3.88,1662137384.0,0.0,0.001,0.002,0.03,8.3975
2022-09-02T16:54:26.2116,3.102,0.154,-2.948,0.0,2.209,5.885,2.209,7134.48,28.35,242.6,234.6,234.1,2.932,49.97,6149.54,855.33,95.0,0.0,9.83,3.88,1662137660.0,0.0,0.001,0.001,0.03,8.40125
2022-09-02T16:59:04.175890,2.897,0.298,-2.599,0.0,2.051,5.885,2.051,7134.65,28.52,242.6,234.6,235.3,2.604,50.02,6149.75,855.33,95.0,0.0,9.83,3.88,1662137938.0,0.0,0.001,0.001,0.03,8.40375
2022-09-02T17:03:42.4291,2.528,0.142,-2.386,0.0,1.748,5.885,1.748,7134.79,28.66,242.3,237.1,237.1,2.384,50.0,6149.93,855.33,95.0,0.0,9.83,3.88,1662138217.0,0.0,0.001,0.001,0.03,8.40625
2022-09-02T17:08:20.7817,2.404,0.19,-2.214,0.0,1.622,5.885,1.622,7134.92,28.79,241.3,237.1,236.5,2.211,50.0,6150.1,855.33,95.0,0.0,9.85,3.88,1662138496.0,0.0,0.001,0.002,0.03,8.40875
2022-09-02T17:13:00.394277,2.223,0.144,-2.079,0.0,1.688,5.885,1.688,7135.04,28.91,241.5,236.1,237.3,2.203,49.97,6150.27,855.33,95.0,0.0,9.86,3.88,1662138774.0,0.0,0.001,0.001,0.03,8.41125
2022-09-02T17:17:41.227,2.376,0.247,-2.129,0.0,1.752,5.885,1.752,7135.17,29.04,242.1,235.3,236.1,2.161,50.0,6150.45,855.33,95.0,0.0,9.87,3.88,1662139056.0,0.0,0.001,0.002,0.03,8.41375
2022-09-02T17:22:19.9907,2.361,0.16,-2.201,0.0,1.715,5.885,1.715,7135.31,29.18,239.5,234.8,237.1,2.183,50.0,6150.62,855.33,95.0,0.0,9.87,3.88,1662139333.0,0.0,0.001,0.002,0.03,8.4175
2022-09-02T17:26:57.3434,2.211,0.61,-1.601,0.0,1.615,5.885,1.615,7135.44,29.31,239.1,238.8,234.3,1.574,49.97,6150.77,855.33,95.0,0.0,9.87,3.88,1662139612.0,0.0,0.001,0.001,0.03,8.41875
2022-09-02T17:31:36.3051,2.059,0.608,-1.451,0.0,1.506,5.885,1.506,7135.56,29.43,236.6,232.1,229.6,1.419,50.0,6150.87,855.33,95.0,0.0,9.87,3.88,1662139890.0,0.0,0.002,0.001,0.029,8.4225
2022-09-02T17:36:14.0929,1.908,0.9,-1.008,0.0,1.381,5.885,1.381,7135.67,29.54,238.3,234.1,232.8,0.991,49.97,6150.97,855.33,95.0,0.0,9.87,3.88,1662140169.0,0.0,0.002,0.002,0.03,8.425
2022-09-02T17:40:51.7347,1.736,0.752,-0.984,0.0,1.266,5.885,1.266,7135.77,29.64,239.6,237.3,233.1,0.987,49.99,6151.04,855.33,95.0,0.0,9.87,3.88,1662140446.0,0.0,0.001,0.001,0.029,8.4275
2022-09-02T17:45:32.0962,1.579,1.519,-0.06,0.0,1.158,5.885,1.158,7135.86,29.73,236.8,237.6,233.8,0.064,49.97,6151.06,855.33,95.0,0.0,9.87,3.88,1662140726.0,0.0,0.002,0.002,0.03,8.43
2022-09-02T17:50:11.7991,1.441,0.899,-0.542,0.0,1.05,5.885,1.05,7135.95,29.82,237.8,236.8,234.3,0.512,49.97,6151.1,855.33,95.0,0.0,9.87,3.88,1662141005.0,0.0,0.002,0.001,0.03,8.4325
2022-09-02T17:54:47.8978,1.315,0.944,-0.371,0.0,0.943,5.885,0.943,7136.03,29.9,237.6,236.3,235.3,0.388,49.97,6151.14,855.33,95.0,0.0,9.87,3.88,1662141283.0,0.0,0.002,0.001,0.03,8.435
2022-09-02T17:59:29.0952,1.112,0.833,-0.279,0.0,0.833,5.885,0.833,7136.1,29.97,236.8,235.0,234.1,0.255,50.0,6151.16,855.33,95.0,0.0,9.87,3.88,1662141563.0,0.0,0.002,0.001,0.03,8.43875
2022-09-02T18:04:05.791503,0.977,0.863,-0.114,0.0,0.732,5.885,0.732,7136.16,30.03,238.0,235.1,233.3,0.109,50.02,6151.18,855.33,95.0,0.0,9.87,3.89,1662141840.0,0.0,0.002,0.001,0.03,8.44
2022-09-02T18:08:43.374,0.827,0.82,-0.007,0.0,0.635,5.885,0.635,7136.21,30.08,234.6,236.1,233.8,0.001,50.0,6151.18,855.33,95.0,0.0,9.87,3.89,1662142116.0,0.0,0.002,0.002,0.03,8.44375
2022-09-02T18:13:21.561,0.733,0.951,-0.065,-0.283,0.57,5.885,0.853,7136.27,30.14,234.3,235.8,233.6,-0.016,50.0,6151.18,855.33,95.0,-0.276,9.87,3.89,1662142396.0,0.0,0.002,0.002,0.029,8.44625
2022-09-02T18:18:00.504071,0.642,0.344,-0.298,0.0,0.462,5.885,0.462,7136.31,30.18,232.3,233.1,230.3,0.245,49.99,6151.2,855.33,95.0,0.0,9.87,3.91,1662142674.0,0.0,0.001,0.001,0.029,8.44875
2022-09-02T18:22:40.0459,0.511,0.264,-0.247,0.0,0.352,5.885,0.352,7136.34,30.21,231.6,235.6,231.8,0.352,49.97,6151.22,855.33,95.0,0.0,9.87,3.91,1662142954.0,0.0,0.001,0.001,0.029,8.45125
2022-09-02T18:27:18.0696,0.447,0.917,0.009,-0.461,0.332,5.885,0.663,7136.38,30.25,231.1,232.1,229.6,0.012,49.97,6151.22,855.33,95.0,0.0,9.87,3.91,1662143232.0,0.0,0.001,0.001,0.028,8.45375
2022-09-02T18:31:56.9688,0.371,0.89,0.0,-0.519,0.284,5.885,0.808,7136.43,30.3,234.8,234.3,232.3,-0.001,49.97,6151.22,855.33,95.0,-0.524,9.87,3.94,1662143511.0,0.0,0.002,0.001,0.029,8.455
2022-09-02T18:36:35.0764,0.284,0.805,0.0,-0.521,0.206,5.885,0.739,7136.49,30.36,235.6,234.3,232.8,0.0,49.97,6151.22,855.33,95.0,-0.533,9.87,3.97,1662143789.0,0.0,0.002,0.001,0.03,8.4575
2022-09-02T18:41:16.0893,0.208,0.786,-0.002,-0.58,0.164,5.885,0.877,7136.55,30.42,235.8,237.3,231.1,-0.002,49.97,6151.22,855.33,95.0,-0.716,9.87,4.05,1662144070.0,0.0,0.002,0.002,0.029,8.46125
2022-09-02T18:45:54.4568,0.168,0.912,-0.002,-0.746,0.132,5.885,0.875,7136.61,30.48,236.0,235.3,234.3,-0.002,49.97,6151.22,855.33,95.0,-0.745,9.87,4.09,1662144348.0,0.0,0.002,0.001,0.03,8.465
2022-09-02T18:50:34.6151,0.119,0.553,0.023,-0.411,0.102,5.885,1.154,7136.7,30.57,234.3,235.3,234.1,-0.09,49.97,6151.22,855.33,94.0,-1.165,9.87,4.2,1662144628.0,0.0,0.002,0.001,0.03,8.4675
2022-09-02T18:55:13.6286,0.1,0.513,0.072,-0.341,0.085,5.885,0.521,7136.78,30.65,232.3,234.6,235.1,-0.097,49.95,6151.22,855.33,93.0,-0.538,9.87,4.33,1662144909.0,0.0,0.001,0.001,0.03,8.47
2022-09-02T18:59:47.8767,0.124,0.785,0.009,-0.652,0.092,5.885,0.729,7136.84,30.7,231.6,233.1,235.1,-0.001,49.99,6151.22,855.33,93.0,-0.637,9.87,4.37,1662145182.0,0.0,0.001,0.001,0.03,8.4725
2022-09-02T19:04:26.7683,0.116,0.777,0.025,-0.636,0.087,5.885,0.692,7136.89,30.76,231.3,235.0,233.8,-0.017,50.04,6151.22,855.33,93.0,-0.633,9.87,4.44,1662145461.0,0.0,0.001,0.001,0.03,8.47375
2022-09-02T19:09:02.978481,0.106,0.864,0.004,-0.754,0.078,5.885,0.805,7136.95,30.82,228.3,232.8,232.3,0.002,50.0,6151.22,855.33,93.0,-0.727,9.87,4.49,1662145737.0,0.0,0.001,0.001,0.03,8.47625
2022-09-02T19:13:40.9828,0.093,0.839,-0.009,-0.755,0.066,5.885,0.82,7137.02,30.89,230.8,235.3,232.8,-0.002,49.97,6151.22,855.33,93.0,-0.754,9.87,4.56,1662146015.0,0.0,0.001,0.001,0.03,8.47875
2022-09-02T19:18:17.9204,0.077,1.067,0.004,-0.986,0.056,5.885,0.957,7137.09,30.96,228.1,237.3,234.1,-0.054,50.0,6151.22,855.33,92.0,-0.901,9.87,4.67,1662146292.0,0.0,0.002,0.001,0.03,8.48125
2022-09-02T19:22:56.6425,0.053,0.3,0.001,-0.246,0.039,5.885,0.306,7137.13,31.0,231.1,237.6,231.5,0.005,49.97,6151.22,855.33,92.0,-0.259,9.87,4.73,1662146571.0,0.0,0.001,0.001,0.029,8.48375
2022-09-02T19:25:15.85,0.048,0.292,0.012,-0.232,0.032,5.885,0.267,7137.14,31.01,230.5,237.8,232.6,-0.123,50.0,6151.22,855.33,92.0,-0.243,9.87,4.75,1662146710.0,0.0,0.001,0.001,0.03,8.485