File: data/huawei/huawei_sun2000_20220903183631.csv
local_time,input_power,day_active_power_peak,active_power,accumulated_yield_energy,daily_yield_energy,grid_voltage_a_phase,b_phase_voltage,c_phase_voltage,power_meter_active_power,grid_frequency,grid_exported_energy,grid_accumulated_energy,storage_state_of_capacity,storage_charge_discharge_power,storage_current_day_charge_capacity,storage_current_day_discharge_capacity,backup_switch_to_off_grid,a_phase_active_power,b_phase_active_power,c_phase_active_power,forward_energy
2022-09-03T18:37:07.103465,,,,,,,,,,,,,,,,,,0.001,0.001,0.03,10.33125
2022-09-03T18:40:05.116015,0.217,6.186,0.214,7167.54,28.82,225.1,236.6,234.3,-1.904,49.97,6182.95,855.55,92.0,0.003,7.42,4.34,0.0,0.001,0.001,0.03,10.33375
2022-09-03T18:43:08.871618,0.199,6.186,0.862,7167.59,28.87,229.8,235.1,234.3,0.275,49.97,6182.95,855.57,92.0,-0.663,7.42,4.4,0.0,0.001,0.002,0.03,10.335
2022-09-03T18:46:12.1592,0.155,6.186,1.487,7167.64,28.91,233.6,232.8,232.6,0.851,49.97,6182.95,855.58,92.0,-1.332,7.42,4.44,0.0,0.001,0.001,0.03,10.3375
2022-09-03T18:49:14.4139,0.144,6.186,1.487,7167.68,28.96,232.5,232.0,233.0,0.676,49.97,6182.95,855.59,92.0,-1.343,7.42,4.49,0.0,0.001,0.001,0.03,10.33875
2022-09-03T18:52:17.9032,0.141,6.186,1.262,7167.73,29.01,231.3,234.6,234.8,0.061,49.97,6182.95,855.6,92.0,-1.121,7.44,4.56,0.0,0.001,0.001,0.03,10.3425
2022-09-03T18:55:21.0522,0.121,6.186,0.274,7167.78,29.06,233.8,232.3,232.5,-0.014,49.93,6182.95,855.61,92.0,-0.153,7.44,4.62,0.0,0.002,0.001,0.03,10.34375
2022-09-03T18:58:24.3111,0.115,6.186,0.263,7167.81,29.09,234.1,233.6,231.3,-0.002,49.97,6182.95,855.61,91.0,-0.148,7.45,4.73,0.0,0.001,0.001,0.029,10.345
2022-09-03T19:01:27.8855,0.134,6.186,0.684,7167.83,29.11,231.6,235.6,233.1,-0.036,50.0,6182.95,855.61,91.0,-0.55,7.45,4.75,0.0,0.001,0.001,0.03,10.34625
2022-09-03T19:04:31.2644,0.136,6.186,0.687,7167.86,29.14,231.6,230.8,234.6,-0.038,50.0,6182.95,855.61,91.0,-0.551,7.45,4.79,0.0,0.002,0.001,0.03,10.34875
2022-09-03T19:07:34.8039,0.131,6.186,0.635,7167.9,29.18,232.5,234.8,235.6,0.064,50.0,6182.95,855.61,91.0,-0.504,7.45,4.81,0.0,0.002,0.001,0.03,10.35
2022-09-03T19:10:38.2367,0.112,6.186,0.754,7167.94,29.22,231.3,231.5,237.0,-0.094,49.97,6182.95,855.61,91.0,-0.642,7.45,4.85,0.0,0.002,0.001,0.03,10.35125
2022-09-03T19:13:41.6543,0.078,6.186,0.637,7167.98,29.26,229.8,232.1,236.0,-0.038,49.97,6182.95,855.61,91.0,-0.559,7.45,4.89,0.0,0.002,0.001,0.03,10.3525
2022-09-03T19:16:45.0877,0.064,6.186,0.617,7168.01,29.29,228.6,232.8,233.5,-0.039,49.99,6182.95,855.63,91.0,-0.553,7.45,4.93,0.0,0.002,0.001,0.03,10.355
2022-09-03T19:19:48.3015,0.05,6.186,0.669,7168.04,29.32,230.8,231.3,234.3,0.018,49.97,6182.95,855.63,91.0,-0.619,7.45,4.97,0.0,0.001,0.001,0.03,10.35625
2022-09-03T19:22:51.6887,0.038,6.186,0.558,7168.07,29.35,230.8,233.1,234.1,-0.07,49.99,6182.95,855.63,91.0,-0.52,7.45,5.0,0.0,0.002,0.001,0.03,10.35875
2022-09-03T19:25:54.9776,0.028,6.186,0.824,7168.11,29.39,229.6,232.3,234.0,-0.022,49.97,6182.95,855.63,90.0,-0.796,7.45,5.02,0.0,0.001,0.001,0.03,10.36
2022-09-03T19:28:58.491,0.017,6.186,0.885,7168.16,29.44,227.5,235.8,234.0,0.107,49.97,6182.95,855.63,90.0,-0.868,7.45,5.11,0.0,0.002,0.001,0.03,10.36125
2022-09-03T19:32:01.787772,0.005,6.186,0.684,7168.2,29.48,230.3,233.6,233.3,0.006,49.97,6182.95,855.63,90.0,-0.69,7.45,5.17,0.0,0.002,0.001,0.03,10.36375
2022-09-03T19:35:05.078524,0.003,6.186,0.803,7168.24,29.52,229.3,233.1,232.0,0.163,49.97,6182.95,855.63,90.0,-0.8,7.45,5.21,0.0,0.002,0.001,0.03,10.365
2022-09-03T19:38:08.367758,0.0,6.186,0.839,7168.28,29.56,228.1,231.8,232.8,0.005,49.95,6182.95,855.63,90.0,-0.839,7.45,5.27,0.0,0.001,0.001,0.03,10.3675
2022-09-03T19:41:11.6832,0.0,6.186,0.827,7168.32,29.6,229.0,234.3,230.6,0.007,49.97,6182.95,855.63,90.0,-0.827,7.45,5.32,0.0,0.002,0.001,0.029,10.36875
2022-09-03T19:44:14.746,0.0,6.186,2.539,7168.39,29.67,224.8,235.1,230.8,-0.023,49.95,6182.95,855.64,89.0,-2.539,7.45,5.35,0.0,0.002,0.001,0.029,10.37125
2022-09-03T19:47:20.5021,0.0,6.186,0.945,7168.44,29.72,229.1,232.3,229.6,-0.002,49.95,6182.95,855.64,89.0,-0.963,7.45,5.44,0.0,0.002,0.001,0.029,10.3725
2022-09-03T19:50:20.9646,0.0,6.186,0.807,7168.49,29.77,232.6,236.6,233.3,0.033,49.95,6182.95,855.64,89.0,-0.807,7.45,5.51,0.0,0.002,0.001,0.03,10.37375
2022-09-03T19:53:24.1904,0.0,6.186,0.727,7168.52,29.8,228.8,233.6,231.6,-0.02,49.95,6182.95,855.64,89.0,-0.727,7.45,5.58,0.0,0.001,0.001,0.03,10.375
2022-09-03T19:56:27.7571,0.0,6.186,0.772,7168.55,29.83,228.3,233.1,232.0,0.014,49.99,6182.95,855.64,89.0,-0.772,7.45,5.63,0.0,0.001,0.001,0.03,10.37625
2022-09-03T19:59:31.379,0.0,6.186,0.695,7168.59,29.87,230.1,232.5,230.1,-0.013,49.97,6182.95,855.64,89.0,-0.695,7.45,5.67,0.0,0.001,0.001,0.029,10.38
2022-09-03T20:02:34.8622,0.0,6.186,0.662,7168.63,29.91,230.5,234.8,232.8,0.006,49.97,6182.95,855.64,88.0,-0.662,7.45,5.73,0.0,0.002,0.001,0.03,10.38125
2022-09-03T20:05:38.0393,0.0,6.186,0.764,7168.67,29.95,230.8,234.3,232.3,-0.021,49.99,6182.95,855.64,88.0,-0.764,7.45,5.75,0.0,0.002,0.001,0.03,10.3825
2022-09-03T20:08:40.6523,0.0,6.186,0.713,7168.7,29.98,230.1,233.1,232.3,-0.013,50.0,6182.95,855.64,88.0,-0.713,7.45,5.81,0.0,0.001,0.001,0.029,10.38375
2022-09-03T20:11:47.9088,,,,,,,,,,,,,,,,,,0.001,0.001,0.03,10.38625
2022-09-03T20:14:45.6648,0.0,6.186,0.747,7168.77,30.05,228.8,234.3,231.1,-0.008,49.99,6182.95,855.64,88.0,-0.747,7.45,5.91,0.0,0.001,0.001,0.03,10.3875
2022-09-03T20:17:49.1197,0.0,6.186,0.714,7168.81,30.09,228.3,234.0,232.6,-0.053,49.99,6182.95,855.64,88.0,-0.714,7.45,6.0,0.0,0.001,0.001,0.03,10.38875
2022-09-03T20:20:52.6547,0.0,6.186,0.593,7168.84,30.12,230.5,232.8,230.3,0.005,50.0,6182.95,855.64,88.0,-0.593,7.45,6.03,0.0,0.001,0.001,0.029,10.39125
2022-09-03T20:23:56.0027,0.0,6.186,0.823,7168.88,30.16,230.1,233.8,231.3,0.065,50.0,6182.95,855.64,87.0,-0.823,7.45,6.08,0.0,0.001,0.001,0.029,10.39375
2022-09-03T20:26:59.1088,0.0,6.186,0.855,7168.92,30.2,230.6,235.8,233.3,-0.003,50.0,6182.95,855.64,87.0,-0.855,7.45,6.12,0.0,0.001,0.001,0.03,10.395
2022-09-03T20:30:02.306266,0.0,6.186,0.739,7168.96,30.24,230.6,232.0,234.0,0.007,50.0,6182.95,855.64,87.0,-0.739,7.45,6.18,0.0,0.001,0.001,0.03,10.39625
2022-09-03T20:33:05.712350,0.0,6.186,0.878,7168.99,30.27,230.3,231.3,234.8,0.063,49.97,6182.95,855.64,87.0,-0.878,7.45,6.22,0.0,0.001,0.001,0.03,10.3975
2022-09-03T20:36:09.113448,0.0,6.186,0.841,7169.04,30.32,229.3,230.3,234.1,-0.026,49.97,6182.95,855.64,87.0,-0.841,7.45,6.27,0.0,0.001,0.001,0.03,10.39875
2022-09-03T20:39:12.1853,0.0,6.186,0.743,7169.08,30.36,229.0,231.6,231.6,0.0,49.97,6182.95,855.64,87.0,-0.743,7.45,6.33,0.0,0.001,0.001,0.029,10.4025
2022-09-03T20:42:15.5829,0.0,6.186,0.781,7169.11,30.39,232.6,236.1,236.0,0.007,50.0,6182.95,855.64,87.0,-0.781,7.45,6.37,0.0,0.002,0.001,0.03,10.40375
2022-09-03T20:45:18.6289,0.0,6.186,0.725,7169.15,30.43,231.5,236.5,236.1,0.007,49.99,6182.95,855.64,86.0,-0.725,7.46,6.42,0.0,0.001,0.001,0.03,10.405
2022-09-03T20:48:22.0421,0.0,6.186,2.427,7169.26,30.54,224.3,236.6,232.8,-0.011,49.99,6182.95,855.65,86.0,-2.427,7.46,6.47,0.0,0.002,0.001,0.029,10.40625
2022-09-03T20:51:25.5064,0.0,6.186,0.355,7169.37,30.65,229.6,233.1,234.0,0.002,49.99,6182.95,855.65,86.0,-0.355,7.46,6.57,0.0,0.001,0.001,0.03,10.40875
2022-09-03T20:54:28.8104,0.0,6.186,2.314,7169.43,30.71,224.1,237.3,236.0,0.002,50.0,6182.95,855.65,85.0,-2.314,7.46,6.71,0.0,0.002,0.001,0.03,10.41
2022-09-03T20:57:32.2416,0.0,6.186,0.338,7169.47,30.75,232.0,234.3,232.1,0.002,49.99,6182.95,855.65,85.0,-0.338,7.46,6.77,0.0,0.001,0.001,0.03,10.41125
2022-09-03T21:00:35.8177,0.0,6.186,0.344,7169.49,30.77,230.6,231.8,233.8,0.0,49.97,6182.95,855.65,85.0,-0.344,7.46,6.84,0.0,0.001,0.001,0.03,10.41375
2022-09-03T21:03:39.0845,0.0,6.186,0.44,7169.51,30.79,229.0,231.3,233.3,0.005,49.95,6182.95,855.65,85.0,-0.44,7.46,6.87,0.0,0.001,0.001,0.03,10.41625
2022-09-03T21:06:42.7399,0.0,6.186,0.361,7169.53,30.81,229.1,232.0,232.1,0.009,49.97,6182.95,855.65,85.0,-0.361,7.46,6.93,0.0,0.001,0.001,0.03,10.4175
2022-09-03T21:09:46.0097,0.0,6.186,0.383,7169.55,30.83,229.5,231.1,232.3,-0.008,50.0,6182.95,855.65,85.0,-0.383,7.46,6.95,0.0,0.001,0.001,0.029,10.41875
2022-09-03T21:12:49.4852,0.0,6.186,0.404,7169.57,30.85,229.8,232.8,229.3,0.0,50.0,6182.95,855.65,85.0,-0.404,7.46,6.98,0.0,0.001,0.001,0.029,10.42
2022-09-03T21:15:52.8442,0.0,6.186,0.403,7169.59,30.87,230.3,234.1,233.1,-0.001,50.0,6182.95,855.65,85.0,-0.404,7.46,7.01,0.0,0.001,0.001,0.03,10.42125
2022-09-03T21:18:56.1374,0.0,6.186,0.409,7169.61,30.89,229.8,232.6,232.1,0.0,50.0,6182.95,855.65,85.0,-0.409,7.46,7.04,0.0,0.001,0.001,0.029,10.425
2022-09-03T21:21:59.3541,0.0,6.186,0.5,7169.64,30.92,230.0,233.3,233.8,-0.001,50.02,6182.95,855.65,84.0,-0.5,7.46,7.07,0.0,0.001,0.001,0.03,10.42625
2022-09-03T21:25:02.975753,0.0,6.186,0.498,7169.66,30.94,229.3,232.8,232.8,0.002,50.02,6182.95,855.65,84.0,-0.498,7.46,7.11,0.0,0.001,0.001,0.03,10.4275
2022-09-03T21:28:06.328315,0.0,6.186,0.477,7169.69,30.97,230.6,233.1,234.3,0.0,50.02,6182.95,855.65,84.0,-0.477,7.46,7.14,0.0,0.001,0.001,0.03,10.42875
2022-09-03T21:31:09.693709,0.0,6.186,0.467,7169.71,30.99,230.6,233.5,234.1,-0.083,49.97,6182.95,855.65,84.0,-0.467,7.46,7.17,0.0,0.001,0.001,0.03,10.43125
2022-09-03T21:34:13.1926,0.0,6.186,0.529,7169.74,31.02,231.1,232.0,233.8,0.001,49.97,6182.95,855.65,84.0,-0.529,7.46,7.2,0.0,0.001,0.001,0.03,10.4325
2022-09-03T21:37:16.5184,0.0,6.186,0.527,7169.77,31.05,230.3,233.5,233.1,0.0,50.0,6182.95,855.65,84.0,-0.527,7.46,7.24,0.0,0.001,0.001,0.03,10.43375
2022-09-03T21:40:19.891,0.0,6.186,0.598,7169.8,31.08,231.1,231.8,234.6,0.002,49.97,6182.95,855.65,84.0,-0.599,7.46,7.28,0.0,0.001,0.001,0.03,10.435
2022-09-03T21:43:23.3203,0.0,6.186,0.635,7169.83,31.11,230.3,233.8,233.0,-0.003,50.02,6182.95,855.65,84.0,-0.635,7.46,7.32,0.0,0.001,0.001,0.03,10.43875
2022-09-03T21:46:26.8787,0.0,6.186,0.545,7169.86,31.14,231.8,232.6,233.0,0.0,50.0,6182.95,855.65,83.0,-0.545,7.46,7.36,0.0,0.001,0.001,0.03,10.44
2022-09-03T21:49:30.2877,0.0,6.186,0.556,7169.88,31.16,230.3,231.6,233.0,0.0,50.02,6182.95,855.65,83.0,-0.556,7.46,7.4,0.0,0.001,0.001,0.03,10.44125
2022-09-03T21:52:33.5868,0.0,6.186,0.548,7169.91,31.19,230.3,230.6,232.8,0.0,50.04,6182.95,855.65,83.0,-0.55,7.46,7.47,0.0,0.001,0.001,0.03,10.4425
2022-09-03T21:55:36.9126,0.0,6.186,0.506,7169.94,31.22,230.6,231.1,234.1,0.0,50.0,6182.95,855.65,83.0,-0.506,7.46,7.51,0.0,0.001,0.001,0.03,10.445
2022-09-03T21:58:40.4006,0.0,6.186,0.619,7169.97,31.25,230.3,231.6,233.8,0.0,50.02,6182.95,855.65,83.0,-0.619,7.46,7.53,0.0,0.002,0.001,0.03,10.4475
2022-09-03T22:01:44.0637,0.0,6.186,0.54,7170.0,31.28,231.1,233.3,233.8,-0.002,49.93,6182.95,855.65,83.0,-0.54,7.46,7.57,0.0,0.001,0.001,0.03,10.44875
2022-09-03T22:04:47.4755,0.0,6.186,0.432,7170.02,31.3,229.6,234.1,232.3,0.0,49.97,6182.95,855.65,83.0,-0.432,7.46,7.62,0.0,0.001,0.001,0.029,10.45
2022-09-03T22:07:50.7805,0.0,6.186,0.434,7170.05,31.33,231.3,235.0,232.6,-0.001,49.97,6182.95,855.65,83.0,-0.434,7.46,7.64,0.0,0.001,0.001,0.03,10.45125
2022-09-03T22:10:54.0971,0.0,6.186,0.431,7170.07,31.35,230.6,235.1,232.1,-0.001,49.99,6182.95,855.65,82.0,-0.431,7.46,7.68,0.0,0.001,0.001,0.029,10.45375
2022-09-03T22:13:57.4737,0.0,6.186,0.437,7170.09,31.37,231.3,233.8,232.0,0.001,50.0,6182.95,855.65,82.0,-0.437,7.46,7.71,0.0,0.001,0.001,0.03,10.455
2022-09-03T22:17:01.180496,0.0,6.186,0.533,7170.11,31.39,231.1,232.6,232.3,-0.003,50.0,6182.95,855.65,82.0,-0.533,7.46,7.75,0.0,0.001,0.001,0.029,10.45625
2022-09-03T22:20:04.491236,0.0,6.186,0.337,7170.14,31.42,231.1,233.1,232.8,-0.017,49.99,6182.95,855.65,82.0,-0.337,7.46,7.78,0.0,0.001,0.001,0.029,10.4575
2022-09-03T22:23:07.820242,0.0,6.186,0.262,7170.16,31.44,232.3,232.8,232.6,0.001,50.02,6182.95,855.65,82.0,-0.262,7.46,7.83,0.0,0.001,0.001,0.029,10.46125
2022-09-03T22:26:11.2191,0.0,6.186,0.305,7170.17,31.45,229.3,234.1,232.3,-0.001,50.0,6182.95,855.65,82.0,-0.305,7.46,7.86,0.0,0.001,0.001,0.03,10.4625
2022-09-03T22:29:14.6183,0.0,6.186,0.307,7170.19,31.47,229.1,234.8,233.8,0.003,50.02,6182.95,855.65,82.0,-0.307,7.46,7.88,0.0,0.001,0.001,0.03,10.46375
2022-09-03T22:32:18.1557,0.0,6.186,2.288,7170.25,31.53,224.3,238.3,236.1,0.003,49.97,6182.95,855.65,82.0,-2.288,7.46,7.92,0.0,0.002,0.001,0.03,10.465
2022-09-03T22:35:21.7525,0.0,6.186,2.296,7170.37,31.65,224.8,237.1,236.6,-0.054,49.97,6182.95,855.65,81.0,-2.296,7.46,8.06,0.0,0.002,0.001,0.03,10.4675
2022-09-03T22:38:24.8661,0.0,6.186,2.369,7170.49,31.77,224.1,237.5,234.6,-0.013,49.97,6182.95,855.65,81.0,-2.369,7.46,8.18,0.0,0.002,0.002,0.03,10.47
2022-09-03T22:41:28.2833,0.0,6.186,2.311,7170.61,31.89,226.1,237.6,233.6,0.004,50.0,6182.95,855.65,80.0,-2.311,7.46,8.28,0.0,0.002,0.001,0.03,10.47125
2022-09-03T22:44:31.6436,0.0,6.186,2.272,7170.72,32.0,225.8,238.1,234.3,-0.003,50.0,6182.95,855.65,80.0,-2.272,7.46,8.4,0.0,0.002,0.001,0.03,10.4725
2022-09-03T22:47:34.716,0.0,6.186,0.285,7170.76,32.04,231.3,235.8,231.6,-0.001,50.0,6182.95,855.65,80.0,-0.285,7.46,8.53,0.0,0.001,0.002,0.03,10.475
2022-09-03T22:50:37.8974,0.0,6.186,0.328,7170.78,32.06,229.8,234.3,233.1,0.003,49.99,6182.95,855.65,80.0,-0.328,7.46,8.56,0.0,0.001,0.001,0.03,10.47625
2022-09-03T22:53:41.5056,0.0,6.186,0.31,7170.79,32.07,229.3,234.8,230.6,0.01,50.0,6182.95,855.65,80.0,-0.31,7.46,8.58,0.0,0.001,0.001,0.029,10.4775
2022-09-03T22:56:44.7466,0.0,6.186,0.382,7170.81,32.09,228.1,234.6,229.6,0.002,50.0,6182.95,855.65,80.0,-0.382,7.46,8.61,0.0,0.001,0.001,0.029,10.47875
2022-09-03T22:59:48.28,0.0,6.186,0.3,7170.83,32.11,234.8,236.6,232.3,0.001,50.0,6182.95,855.65,79.0,-0.3,7.46,8.63,0.0,0.001,0.001,0.03,10.48
2022-09-03T23:02:51.4873,0.0,6.186,0.242,7170.85,32.13,232.6,237.8,234.1,-0.004,49.97,6182.95,855.65,79.0,-0.242,7.46,8.65,0.0,0.001,0.001,0.03,10.48375
2022-09-03T23:05:59.4728,,,,,,,,,,,,,,,,,,0.001,0.001,0.03,10.485
2022-09-03T23:08:57.4172,0.0,6.186,0.21,7170.87,32.15,229.5,234.6,232.0,-0.001,50.0,6182.95,855.65,79.0,-0.207,7.46,8.71,0.0,0.001,0.001,0.029,10.48625
2022-09-03T23:12:00.883209,0.0,6.186,0.212,7170.88,32.16,228.8,233.3,230.3,0.0,49.99,6182.95,855.65,79.0,-0.212,7.46,8.75,0.0,0.001,0.001,0.029,10.4875
2022-09-03T23:15:04.275311,0.0,6.186,0.316,7170.9,32.18,233.3,237.6,234.8,-0.001,49.97,6182.95,855.65,79.0,-0.316,7.46,8.77,0.0,0.001,0.001,0.03,10.49
2022-09-03T23:18:07.641583,0.0,6.186,0.3,7170.91,32.19,229.8,233.0,232.3,0.0,50.0,6182.95,855.65,79.0,-0.3,7.46,8.8,0.0,0.001,0.001,0.03,10.4925
2022-09-03T23:21:11.1157,0.0,6.186,0.212,7170.92,32.2,230.3,233.1,230.8,-0.001,50.0,6182.95,855.65,79.0,-0.212,7.46,8.81,0.0,0.001,0.001,0.029,10.49375
2022-09-03T23:24:14.2511,0.0,6.186,0.214,7170.93,32.21,231.1,233.3,229.3,0.0,50.0,6182.95,855.65,79.0,-0.214,7.46,8.83,0.0,0.001,0.001,0.029,10.495
2022-09-03T23:27:17.5257,0.0,6.186,0.211,7170.94,32.22,230.8,232.6,231.8,0.0,50.0,6182.95,855.65,79.0,-0.211,7.46,8.85,0.0,0.001,0.001,0.03,10.49625
2022-09-03T23:30:20.9609,0.0,6.186,0.216,7170.95,32.23,235.3,235.6,235.1,0.0,50.0,6182.95,855.65,79.0,-0.216,7.46,8.87,0.0,0.001,0.001,0.03,10.49875
2022-09-03T23:33:24.2853,0.0,6.186,0.31,7170.97,32.25,231.6,232.8,231.3,0.002,50.0,6182.95,855.65,79.0,-0.306,7.46,8.89,0.0,0.001,0.001,0.029,10.5
2022-09-03T23:36:27.7529,0.0,6.186,0.251,7170.98,32.26,232.1,233.1,231.3,0.0,49.99,6182.95,855.65,78.0,-0.251,7.46,8.92,0.0,0.001,0.001,0.029,10.50125
2022-09-03T23:39:31.4983,0.0,6.186,0.188,7170.99,32.27,231.3,233.0,229.6,-0.119,50.0,6182.95,855.65,78.0,-0.188,7.46,8.94,0.0,0.001,0.001,0.029,10.5025
2022-09-03T23:42:35.057,0.0,6.186,0.289,7171.01,32.29,231.3,233.6,233.1,-0.05,50.02,6182.95,855.65,78.0,-0.289,7.46,8.95,0.0,0.001,0.001,0.03,10.50625
2022-09-03T23:45:38.3316,0.0,6.186,0.36,7171.03,32.31,231.6,233.8,233.1,0.001,49.99,6182.95,855.65,78.0,-0.36,7.46,8.98,0.0,0.001,0.001,0.03,10.5075
2022-09-03T23:48:41.7075,0.0,6.186,0.343,7171.05,32.33,231.3,234.1,232.8,0.0,50.0,6182.95,855.65,78.0,-0.343,7.46,9.0,0.0,0.001,0.001,0.03,10.50875
2022-09-03T23:51:44.975,0.0,6.186,0.544,7171.07,32.35,231.6,234.1,233.8,0.002,50.02,6182.95,855.65,78.0,-0.544,7.46,9.04,0.0,0.001,0.001,0.03,10.51
2022-09-03T23:54:48.2049,0.0,6.186,0.365,7171.09,32.37,231.8,233.5,232.8,0.0,50.0,6182.95,855.65,78.0,-0.365,7.46,9.07,0.0,0.001,0.001,0.03,10.51125
2022-09-03T23:57:51.3442,0.0,6.186,0.272,7171.11,32.39,231.8,231.1,233.1,0.0,50.0,6182.95,855.65,78.0,-0.272,7.46,9.1,0.0,0.001,0.001,0.03,10.51375
2022-09-04T00:00:55.1674,0.0,0.281,0.078,7171.12,0.0,232.1,233.1,233.6,-0.006,49.97,6182.95,855.65,78.0,-0.078,0.0,0.0,0.0,0.001,0.001,0.03,10.515
2022-09-04T00:03:58.7181,0.0,0.281,0.083,7171.12,0.0,232.0,233.1,233.6,0.0,49.97,6182.95,855.65,78.0,-0.083,0.0,0.05,0.0,0.001,0.001,0.03,10.5175
2022-09-04T00:07:02.008976,0.0,0.281,0.15,7171.13,0.01,233.1,233.3,233.0,0.01,49.95,6182.95,855.65,78.0,-0.15,0.0,0.06,0.0,0.001,0.001,0.03,10.51875
2022-09-04T00:10:05.521391,0.0,0.281,0.135,7171.14,0.02,232.8,235.5,230.5,-0.003,49.97,6182.95,855.65,78.0,-0.135,0.0,0.08,0.0,0.001,0.001,0.029,10.52125
2022-09-04T00:13:09.063777,0.0,0.281,0.259,7171.15,0.03,232.3,234.3,230.1,-0.001,49.95,6182.95,855.65,77.0,-0.259,0.0,0.1,0.0,0.001,0.001,0.029,10.5225
2022-09-04T00:16:12.4471,0.0,0.281,0.163,7171.16,0.04,233.3,235.5,231.1,0.0,49.99,6182.95,855.65,77.0,-0.163,0.0,0.12,0.0,0.001,0.001,0.029,10.52375
2022-09-04T00:19:15.7964,0.0,0.281,0.154,7171.17,0.05,233.5,233.5,230.8,-0.002,50.0,6182.95,855.65,77.0,-0.154,0.0,0.14,0.0,0.001,0.001,0.029,10.525
2022-09-04T00:22:19.0746,0.0,0.281,0.151,7171.18,0.06,233.1,233.8,231.8,-0.001,49.99,6182.95,855.65,77.0,-0.151,0.0,0.15,0.0,0.001,0.001,0.029,10.5275
2022-09-04T00:25:21.6417,0.0,0.281,0.153,7171.19,0.07,232.3,232.0,232.0,0.0,49.97,6182.95,855.65,77.0,-0.153,0.0,0.17,0.0,0.001,0.001,0.03,10.53
2022-09-04T00:28:25.1294,0.0,0.281,0.155,7171.2,0.08,232.8,230.6,232.1,0.0,49.97,6182.95,855.65,77.0,-0.155,0.0,0.19,0.0,0.001,0.001,0.029,10.53125
2022-09-04T00:31:28.5243,0.0,0.289,0.25,7171.21,0.09,232.6,232.1,232.8,-0.001,49.97,6182.95,855.65,77.0,-0.25,0.0,0.2,0.0,0.001,0.001,0.029,10.5325
2022-09-04T00:34:31.9146,0.0,0.289,0.239,7171.22,0.1,231.6,233.8,232.6,-0.001,50.0,6182.95,855.65,77.0,-0.239,0.0,0.23,0.0,0.001,0.001,0.03,10.53375
2022-09-04T00:37:35.0733,0.0,0.289,0.145,7171.23,0.11,232.8,233.0,233.1,0.0,49.99,6182.95,855.65,77.0,-0.145,0.0,0.25,0.0,0.001,0.001,0.03,10.53625
2022-09-04T00:40:38.5853,0.0,0.289,0.147,7171.23,0.11,231.8,232.6,231.8,-0.001,50.0,6182.95,855.65,77.0,-0.147,0.0,0.27,0.0,0.001,0.001,0.029,10.5375
2022-09-04T00:43:41.8846,0.0,0.289,0.142,7171.24,0.12,232.5,233.3,233.1,-0.002,50.0,6182.95,855.65,77.0,-0.142,0.0,0.28,0.0,0.001,0.001,0.03,10.53875
2022-09-04T00:46:45.2746,0.0,0.289,0.139,7171.25,0.13,230.0,232.6,233.1,0.0,50.0,6182.95,855.65,77.0,-0.139,0.0,0.3,0.0,0.001,0.001,0.03,10.54
2022-09-04T00:49:48.8563,0.0,0.374,0.238,7171.26,0.14,231.1,233.8,232.8,0.0,50.02,6182.95,855.65,77.0,-0.24,0.0,0.32,0.0,0.001,0.001,0.03,10.54375
2022-09-04T00:52:52.2676,0.0,0.374,0.229,7171.27,0.15,232.5,232.6,232.6,0.0,50.0,6182.95,855.65,77.0,-0.229,0.0,0.34,0.0,0.001,0.001,0.03,10.545
2022-09-04T00:55:55.7132,0.0,0.374,0.14,7171.28,0.16,232.6,233.3,233.1,0.001,49.97,6182.95,855.65,77.0,-0.14,0.0,0.35,0.0,0.001,0.001,0.03,10.54625
2022-09-04T00:58:58.9976,0.0,0.374,0.139,7171.29,0.17,234.6,235.8,234.3,0.001,49.99,6182.95,855.65,76.0,-0.139,0.0,0.37,0.0,0.001,0.001,0.03,10.5475
2022-09-04T01:02:02.245691,0.0,0.374,0.103,7171.29,0.17,233.8,232.8,232.1,0.0,49.95,6182.95,855.65,76.0,-0.103,0.0,0.39,0.0,0.001,0.001,0.029,10.55
2022-09-04T01:05:05.616638,0.0,0.374,0.083,7171.3,0.18,232.8,234.1,231.8,0.004,49.99,6182.95,855.65,76.0,-0.083,0.0,0.41,0.0,0.001,0.001,0.03,10.55125
2022-09-04T01:08:08.921944,0.0,0.374,0.185,7171.3,0.18,232.1,236.0,234.3,0.001,49.97,6182.95,855.65,76.0,-0.185,0.0,0.42,0.0,0.001,0.001,0.03,10.55375
2022-09-04T01:11:12.25,0.0,0.374,0.172,7171.31,0.19,233.8,235.8,234.6,0.0,49.97,6182.95,855.65,76.0,-0.172,0.0,0.44,0.0,0.001,0.001,0.03,10.555
2022-09-04T01:14:15.321,0.0,0.374,0.091,7171.32,0.2,234.3,234.8,234.1,0.001,49.97,6182.95,855.65,76.0,-0.091,0.0,0.46,0.0,0.001,0.001,0.03,10.55625
2022-09-04T01:17:18.6697,0.0,0.374,0.072,7171.32,0.2,232.1,233.6,231.8,0.0,50.02,6182.95,855.65,76.0,-0.072,0.0,0.47,0.0,0.001,0.001,0.029,10.55875
2022-09-04T01:20:22.1269,0.0,0.374,0.075,7171.33,0.21,233.6,234.8,231.3,0.0,50.02,6182.95,855.65,76.0,-0.075,0.0,0.49,0.0,0.001,0.001,0.029,10.56
2022-09-04T01:23:25.3994,0.0,0.374,0.071,7171.33,0.21,232.6,234.1,233.3,0.0,50.0,6182.95,855.65,76.0,-0.071,0.0,0.51,0.0,0.001,0.001,0.03,10.56125
2022-09-04T01:26:28.4949,0.0,0.374,0.085,7171.33,0.21,232.8,233.8,233.3,-0.057,49.99,6182.95,855.65,76.0,-0.085,0.0,0.52,0.0,0.001,0.001,0.03,10.5625
2022-09-04T01:29:31.8771,0.0,0.374,0.165,7171.34,0.22,232.8,233.8,232.6,-0.001,50.0,6182.95,855.65,76.0,-0.165,0.0,0.54,0.0,0.002,0.001,0.029,10.565
2022-09-04T01:32:34.9984,0.0,0.374,0.11,7171.35,0.23,233.0,234.6,233.6,-0.001,50.0,6182.95,855.65,76.0,-0.11,0.0,0.56,0.0,0.001,0.001,0.03,10.5675
2022-09-04T01:35:38.4052,0.0,0.374,0.121,7171.36,0.24,232.6,233.3,232.8,-0.002,50.02,6182.95,855.65,76.0,-0.121,0.0,0.56,0.0,0.001,0.001,0.03,10.56875
2022-09-04T01:38:41.6915,0.0,0.374,0.117,7171.36,0.24,233.8,235.3,235.1,0.0,50.02,6182.95,855.65,76.0,-0.117,0.0,0.58,0.0,0.001,0.001,0.03,10.57
2022-09-04T01:41:44.2479,0.0,0.374,0.119,7171.37,0.25,233.1,234.3,235.0,0.0,50.0,6182.95,855.65,76.0,-0.119,0.0,0.59,0.0,0.001,0.001,0.03,10.5725
2022-09-04T01:44:52.1351,,,,,,,,,,,,,,,,,,0.001,0.001,0.03,10.57375
2022-09-04T01:47:49.9719,0.0,0.374,0.218,7171.38,0.26,231.6,235.0,234.0,0.0,50.0,6182.95,855.65,76.0,-0.218,0.0,0.63,0.0,0.001,0.001,0.03,10.575
2022-09-04T01:50:55.4628,0.0,0.374,0.208,7171.39,0.27,233.8,234.8,234.1,0.068,50.0,6182.95,855.65,76.0,-0.206,0.0,0.65,0.0,0.001,0.001,0.03,10.5775
2022-09-04T01:53:55.8992,0.0,0.374,0.114,7171.4,0.28,235.8,236.1,236.1,0.0,50.0,6182.95,855.65,76.0,-0.114,0.0,0.67,0.0,0.001,0.001,0.03,10.58
2022-09-04T01:56:59.3805,0.0,0.374,0.115,7171.41,0.29,233.3,233.6,232.5,0.001,49.99,6182.95,855.65,76.0,-0.115,0.0,0.68,0.0,0.001,0.001,0.03,10.58125
2022-09-04T02:00:02.593031,0.0,0.374,0.12,7171.41,0.29,234.6,236.6,235.6,0.001,49.97,6182.95,855.65,76.0,-0.12,0.0,0.7,0.0,0.001,0.001,0.03,10.5825
2022-09-04T02:03:06.039909,0.0,0.374,0.11,7171.42,0.3,232.6,232.8,230.6,-0.002,49.97,6182.95,855.65,75.0,-0.11,0.0,0.71,0.0,0.001,0.001,0.029,10.58375
2022-09-04T02:06:09.510094,0.0,0.374,0.17,7171.42,0.3,233.1,235.6,234.1,0.0,49.97,6182.95,855.65,75.0,-0.166,0.0,0.73,0.0,0.001,0.001,0.03,10.585
2022-09-04T02:09:12.6966,0.0,0.374,0.156,7171.43,0.31,232.6,234.1,232.6,0.001,50.0,6182.95,855.65,75.0,-0.156,0.0,0.75,0.0,0.001,0.001,0.029,10.5875
2022-09-04T02:12:15.5191,0.0,0.374,0.065,7171.44,0.32,232.6,235.1,232.8,0.0,50.0,6182.95,855.65,75.0,-0.065,0.0,0.77,0.0,0.001,0.001,0.03,10.58875
2022-09-04T02:15:18.812,0.0,0.374,0.064,7171.44,0.32,232.8,235.3,232.3,-0.002,49.97,6182.95,855.65,75.0,-0.064,0.0,0.79,0.0,0.001,0.001,0.03,10.59
2022-09-04T02:18:22.1206,0.0,0.374,0.065,7171.44,0.32,232.8,233.3,231.3,-0.004,49.97,6182.95,855.65,75.0,-0.065,0.0,0.8,0.0,0.001,0.001,0.029,10.5925
2022-09-04T02:21:25.5185,0.0,0.374,0.065,7171.45,0.33,232.6,234.1,230.8,0.0,50.0,6182.95,855.65,75.0,-0.065,0.0,0.8,0.0,0.001,0.001,0.029,10.595
2022-09-04T02:24:28.8305,0.0,0.374,0.174,7171.45,0.33,233.3,233.6,231.6,-0.003,50.0,6182.95,855.65,75.0,-0.174,0.0,0.82,0.0,0.001,0.001,0.03,10.59625
2022-09-04T02:27:32.0927,0.0,0.374,0.159,7171.46,0.34,232.6,233.5,232.8,0.002,50.0,6182.95,855.65,75.0,-0.159,0.0,0.84,0.0,0.001,0.001,0.03,10.5975
2022-09-04T02:30:35.6607,0.0,0.374,0.067,7171.47,0.35,233.1,234.5,233.3,0.001,49.97,6182.95,855.65,75.0,-0.067,0.0,0.85,0.0,0.001,0.001,0.03,10.59875
2022-09-04T02:33:39.0322,0.0,0.374,0.065,7171.47,0.35,232.3,233.6,232.1,-0.001,49.99,6182.95,855.65,75.0,-0.065,0.0,0.87,0.0,0.001,0.001,0.029,10.60125
2022-09-04T02:36:42.3777,0.0,0.374,0.109,7171.47,0.35,233.0,233.8,232.3,0.0,50.0,6182.95,855.65,75.0,-0.109,0.0,0.87,0.0,0.001,0.001,0.029,10.60375
2022-09-04T02:39:45.6933,0.0,0.374,0.112,7171.48,0.36,232.8,234.3,233.6,0.001,50.0,6182.95,855.65,75.0,-0.115,0.0,0.9,0.0,0.001,0.001,0.03,10.605
2022-09-04T02:42:48.9302,0.0,0.374,0.113,7171.48,0.36,232.8,234.1,232.8,0.0,50.0,6182.95,855.65,75.0,-0.113,0.0,0.9,0.0,0.001,0.001,0.03,10.60625
2022-09-04T02:45:52.8319,0.0,0.374,0.211,7171.49,0.37,234.3,233.3,233.1,0.0,50.0,6182.95,855.65,75.0,-0.211,0.0,0.92,0.0,0.001,0.001,0.03,10.6075
2022-09-04T02:48:56.265,0.0,0.374,0.203,7171.5,0.38,233.8,234.5,233.8,0.0,49.97,6182.95,855.65,75.0,-0.203,0.0,0.94,0.0,0.001,0.001,0.03,10.61
2022-09-04T02:51:59.7068,0.0,0.374,0.117,7171.51,0.39,234.3,233.6,232.6,0.0,50.0,6182.95,855.65,75.0,-0.117,0.0,0.96,0.0,0.001,0.001,0.03,10.61125
2022-09-04T02:55:03.078569,0.0,0.374,0.113,7171.52,0.4,234.6,235.6,234.6,0.0,50.0,6182.95,855.65,75.0,-0.111,0.0,0.98,0.0,0.001,0.001,0.03,10.6125
2022-09-04T02:58:06.466595,0.0,0.374,0.111,7171.52,0.4,235.8,233.3,233.6,0.0,50.0,6182.95,855.65,75.0,-0.111,0.0,1.01,0.0,0.001,0.001,0.03,10.61375
2022-09-04T03:01:10.0382,0.0,0.374,0.108,7171.53,0.41,234.8,233.8,235.1,-0.001,49.95,6182.95,855.65,75.0,-0.108,0.0,1.02,0.0,0.001,0.001,0.03,10.6175
2022-09-04T03:04:13.3856,0.0,0.374,0.164,7171.53,0.41,233.8,231.3,232.8,0.0,49.95,6182.95,855.65,75.0,-0.164,0.0,1.03,0.0,0.001,0.001,0.029,10.61875
2022-09-04T03:07:16.6927,0.0,0.374,0.153,7171.54,0.42,232.6,233.5,232.6,-0.001,49.97,6182.95,855.65,74.0,-0.155,0.0,1.05,0.0,0.001,0.001,0.029,10.62
2022-09-04T03:10:20.0483,0.0,0.374,0.064,7171.55,0.43,233.6,233.8,233.3,0.001,49.97,6182.95,855.65,74.0,-0.064,0.0,1.06,0.0,0.001,0.001,0.03,10.62125
2022-09-04T03:13:23.2884,0.0,0.374,0.062,7171.55,0.43,232.1,233.8,233.3,0.0,50.0,6182.95,855.65,74.0,-0.062,0.0,1.08,0.0,0.001,0.001,0.03,10.62375
2022-09-04T03:16:26.5693,0.0,0.374,0.06,7171.55,0.43,233.6,233.3,233.1,0.0,49.97,6182.95,855.65,74.0,-0.06,0.0,1.09,0.0,0.001,0.001,0.03,10.62625
2022-09-04T03:19:29.7634,0.0,0.374,0.064,7171.56,0.44,234.0,234.5,234.1,-0.001,50.0,6182.95,855.65,74.0,-0.064,0.0,1.11,0.0,0.001,0.001,0.03,10.6275
2022-09-04T03:22:33.2161,0.0,0.374,0.175,7171.56,0.44,234.3,234.6,234.3,0.0,50.0,6182.95,855.65,74.0,-0.175,0.0,1.11,0.0,0.001,0.001,0.03,10.62875
2022-09-04T03:25:36.466,0.0,0.374,0.154,7171.57,0.45,233.5,234.6,233.6,0.0,49.99,6182.95,855.65,74.0,-0.154,0.0,1.14,0.0,0.001,0.001,0.03,10.63
2022-09-04T03:28:39.9521,0.0,0.374,0.064,7171.57,0.45,233.6,234.1,233.1,0.0,50.0,6182.95,855.65,74.0,-0.064,0.0,1.16,0.0,0.001,0.001,0.03,10.6325
2022-09-04T03:31:43.1767,0.0,0.374,0.062,7171.58,0.46,233.3,234.1,233.1,-0.001,50.0,6182.95,855.65,74.0,-0.062,0.0,1.16,0.0,0.001,0.001,0.03,10.63375
2022-09-04T03:34:46.5467,0.0,0.374,0.095,7171.58,0.46,233.8,234.8,233.6,-0.001,50.0,6182.95,855.65,74.0,-0.095,0.0,1.18,0.0,0.001,0.001,0.03,10.635
2022-09-04T03:37:49.9313,0.0,0.374,0.107,7171.59,0.47,232.6,233.8,232.8,-0.002,50.0,6182.95,855.65,74.0,-0.107,0.0,1.19,0.0,0.001,0.001,0.03,10.63625
2022-09-04T03:40:53.407,0.0,0.374,0.104,7171.59,0.47,235.3,234.6,232.8,0.0,50.0,6182.95,855.65,74.0,-0.104,0.0,1.21,0.0,0.001,0.001,0.03,10.63875
2022-09-04T03:43:56.6007,0.0,0.374,0.199,7171.6,0.48,235.3,236.0,235.6,-0.001,50.0,6182.95,855.65,74.0,-0.199,0.0,1.23,0.0,0.001,0.001,0.03,10.64125
2022-09-04T03:46:59.9706,0.0,0.374,0.189,7171.61,0.49,235.1,236.8,235.3,0.086,50.0,6182.95,855.65,74.0,-0.189,0.0,1.25,0.0,0.001,0.001,0.03,10.6425
2022-09-04T03:50:03.272657,0.0,0.374,0.1,7171.62,0.5,235.3,235.8,235.3,0.0,50.02,6182.95,855.65,74.0,-0.1,0.0,1.26,0.0,0.001,0.001,0.03,10.64375
2022-09-04T03:53:06.508106,0.0,0.374,0.1,7171.62,0.5,232.8,233.6,232.6,-0.002,50.0,6182.95,855.65,74.0,-0.1,0.0,1.28,0.0,0.002,0.001,0.029,10.64625
2022-09-04T03:56:09.886813,0.0,0.374,0.101,7171.63,0.51,233.3,234.1,232.8,-0.002,50.0,6182.95,855.65,74.0,-0.101,0.0,1.29,0.0,0.001,0.001,0.03,10.6475
2022-09-04T03:59:13.5254,0.0,0.374,0.103,7171.63,0.51,232.6,234.3,231.6,-0.001,50.02,6182.95,855.65,74.0,-0.103,0.0,1.3,0.0,0.001,0.001,0.029,10.65
2022-09-04T04:02:16.8935,0.0,0.374,0.201,7171.64,0.52,232.8,233.0,232.6,0.003,49.99,6182.95,855.65,74.0,-0.201,0.0,1.32,0.0,0.001,0.001,0.03,10.65125
2022-09-04T04:05:20.3079,0.0,0.657,0.651,7171.66,0.54,232.1,234.1,234.0,0.0,49.97,6182.95,855.65,73.0,-0.651,0.0,1.33,0.0,0.001,0.001,0.03,10.65375
2022-09-04T04:08:23.7013,0.0,0.657,0.561,7171.69,0.57,231.8,235.1,233.8,0.001,49.99,6182.95,855.65,73.0,-0.561,0.0,1.37,0.0,0.001,0.001,0.03,10.655
2022-09-04T04:11:27.131,0.0,0.657,0.523,7171.71,0.59,231.6,235.1,233.8,0.001,49.97,6182.95,855.65,73.0,-0.523,0.0,1.41,0.0,0.001,0.001,0.03,10.65625
2022-09-04T04:14:30.7,0.0,0.657,0.521,7171.74,0.62,231.8,235.3,233.5,0.0,50.0,6182.95,855.65,73.0,-0.521,0.0,1.47,0.0,0.001,0.001,0.03,10.6575
2022-09-04T04:17:33.9659,0.0,0.657,0.522,7171.77,0.65,231.1,235.3,234.3,0.001,50.0,6182.95,855.65,73.0,-0.522,0.0,1.5,0.0,0.001,0.001,0.03,10.66
2022-09-04T04:20:37.4964,0.0,0.657,0.63,7171.8,0.67,230.3,236.8,235.3,-0.008,50.0,6182.95,855.65,73.0,-0.63,0.0,1.54,0.0,0.001,0.001,0.03,10.66125
2022-09-04T04:23:46.6352,,,,,,,,,,,,,,,,,,0.001,0.002,0.03,10.6625
2022-09-04T04:26:43.5448,0.0,0.657,0.525,7171.86,0.74,232.6,235.3,234.8,-0.003,49.97,6182.95,855.65,73.0,-0.525,0.0,1.63,0.0,0.001,0.001,0.03,10.665
2022-09-04T04:29:46.9666,0.0,0.657,0.53,7171.88,0.76,233.8,234.3,234.8,-0.001,50.02,6182.95,855.65,73.0,-0.53,0.0,1.66,0.0,0.001,0.001,0.03,10.66625
2022-09-04T04:32:50.3137,0.0,0.657,0.528,7171.91,0.79,233.8,235.6,235.1,-0.006,50.0,6182.95,855.65,72.0,-0.528,0.0,1.7,0.0,0.001,0.001,0.03,10.66875
2022-09-04T04:35:53.6291,0.0,0.657,0.532,7171.94,0.82,233.8,234.8,233.8,0.0,50.0,6182.95,855.65,72.0,-0.527,0.0,1.73,0.0,0.001,0.001,0.03,10.67
2022-09-04T04:38:57.0815,0.0,0.657,0.528,7171.96,0.84,233.5,236.0,234.8,0.004,49.99,6182.95,855.65,72.0,-0.528,0.0,1.77,0.0,0.001,0.001,0.03,10.6725
2022-09-04T04:42:00.426789,0.0,0.75,0.649,7171.99,0.87,233.6,237.1,235.5,-0.001,50.0,6182.95,855.65,72.0,-0.649,0.0,1.8,0.0,0.001,0.002,0.03,10.67375
2022-09-04T04:45:03.999697,0.0,0.75,0.645,7172.03,0.91,232.8,236.1,234.8,0.0,50.0,6182.95,855.65,72.0,-0.645,0.0,1.85,0.0,0.001,0.001,0.03,10.67625
2022-09-04T04:48:07.374334,0.0,0.75,0.562,7172.06,0.94,233.1,234.3,236.1,-0.001,50.0,6182.95,855.65,72.0,-0.562,0.0,1.89,0.0,0.001,0.001,0.03,10.6775
2022-09-04T04:51:10.5043,0.0,0.75,0.561,7172.09,0.97,231.8,233.3,234.5,0.0,49.99,6182.95,855.65,72.0,-0.561,0.0,1.93,0.0,0.001,0.001,0.03,10.67875
2022-09-04T04:54:13.8527,0.0,0.75,0.563,7172.11,0.99,232.1,232.8,234.8,0.004,49.99,6182.95,855.65,71.0,-0.563,0.0,1.96,0.0,0.001,0.001,0.03,10.68
2022-09-04T04:57:17.4787,0.0,0.75,0.563,7172.14,1.02,232.5,232.3,234.6,0.0,49.99,6182.95,855.65,71.0,-0.563,0.0,2.0,0.0,0.001,0.001,0.03,10.6825
2022-09-04T05:00:20.8738,0.0,0.778,0.663,7172.17,1.05,231.8,234.5,233.6,-0.004,49.97,6182.95,855.65,71.0,-0.663,0.0,2.03,0.0,0.001,0.001,0.03,10.68375
2022-09-04T05:03:24.2973,0.0,0.778,0.195,7172.2,1.08,233.8,233.8,233.6,0.0,50.0,6182.95,855.65,71.0,-0.193,0.0,2.11,0.0,0.001,0.001,0.03,10.685
2022-09-04T05:06:27.5552,0.0,0.778,0.102,7172.2,1.08,233.5,234.1,233.1,0.001,50.0,6182.95,855.65,71.0,-0.102,0.0,2.13,0.0,0.001,0.001,0.03,10.6875
2022-09-04T05:09:30.8875,0.0,0.778,0.097,7172.21,1.09,233.1,233.5,233.3,0.0,49.97,6182.95,855.65,71.0,-0.097,0.0,2.15,0.0,0.001,0.001,0.03,10.69
2022-09-04T05:12:34.4405,0.0,0.778,0.098,7172.21,1.09,234.0,233.6,233.6,0.0,49.97,6182.95,855.65,71.0,-0.098,0.0,2.16,0.0,0.001,0.001,0.03,10.69125
2022-09-04T05:15:37.8762,0.0,0.778,0.097,7172.22,1.1,232.8,234.3,233.3,0.0,50.0,6182.95,855.65,71.0,-0.097,0.0,2.17,0.0,0.001,0.001,0.03,10.6925
2022-09-04T05:18:41.2199,0.0,0.778,0.099,7172.22,1.1,234.8,233.8,233.8,-0.003,50.0,6182.95,855.65,71.0,-0.099,0.0,2.18,0.0,0.001,0.001,0.03,10.69375
2022-09-04T05:21:44.5748,0.0,0.778,0.152,7172.23,1.11,233.1,234.1,233.3,-0.001,50.0,6182.95,855.65,71.0,-0.152,0.0,2.2,0.0,0.001,0.001,0.03,10.6975
2022-09-04T05:24:47.8759,0.0,0.778,0.064,7172.24,1.12,233.5,234.3,233.5,-0.002,49.97,6182.95,855.65,71.0,-0.064,0.0,2.22,0.0,0.001,0.001,0.03,10.69875
2022-09-04T05:27:51.3877,0.0,0.778,0.064,7172.24,1.12,233.8,234.0,232.6,0.0,49.97,6182.95,855.65,71.0,-0.064,0.0,2.23,0.0,0.001,0.001,0.029,10.7
2022-09-04T05:30:54.7493,0.0,0.778,0.064,7172.25,1.13,235.3,234.8,233.5,-0.003,50.0,6182.95,855.65,71.0,-0.064,0.0,2.25,0.0,0.001,0.001,0.03,10.70125
2022-09-04T05:33:58.2531,0.0,0.778,0.062,7172.25,1.13,235.3,234.3,234.6,0.0,50.0,6182.95,855.65,71.0,-0.062,0.0,2.26,0.0,0.001,0.001,0.03,10.7025
2022-09-04T05:37:01.659408,0.0,0.778,0.063,7172.25,1.13,235.3,234.3,234.6,0.0,50.0,6182.95,855.65,71.0,-0.063,0.0,2.27,0.0,0.001,0.001,0.03,10.705
2022-09-04T05:40:05.078319,0.0,0.778,0.16,7172.26,1.14,234.3,233.3,234.0,-0.001,49.99,6182.95,855.65,70.0,-0.16,0.0,2.28,0.0,0.001,0.001,0.03,10.70625
2022-09-04T05:43:08.436944,0.0,0.778,0.149,7172.27,1.15,233.3,233.1,233.8,0.001,50.0,6182.95,855.65,70.0,-0.149,0.0,2.3,0.0,0.001,0.001,0.03,10.7075
2022-09-04T05:46:11.6642,0.0,0.778,0.064,7172.27,1.15,233.6,233.1,233.8,0.0,50.0,6182.95,855.65,70.0,-0.064,0.0,2.32,0.0,0.001,0.001,0.03,10.70875
2022-09-04T05:49:14.9361,0.0,0.778,0.063,7172.27,1.15,232.8,233.1,234.6,-0.001,50.0,6182.95,855.65,70.0,-0.063,0.0,2.33,0.0,0.001,0.001,0.03,10.71125
2022-09-04T05:52:18.3503,0.0,0.778,0.093,7172.28,1.16,233.8,234.6,234.6,-0.001,49.99,6182.95,855.65,70.0,-0.093,0.0,2.35,0.0,0.001,0.001,0.03,10.7125
2022-09-04T05:55:21.5504,0.0,0.778,0.101,7172.28,1.16,233.1,234.1,234.3,0.0,50.0,6182.95,855.65,70.0,-0.105,0.0,2.35,0.0,0.001,0.001,0.03,10.71375
2022-09-04T05:58:24.8248,0.0,0.778,0.204,7172.29,1.17,232.8,233.1,232.8,0.0,49.99,6182.95,855.65,70.0,-0.204,0.0,2.37,0.0,0.001,0.001,0.03,10.715
2022-09-04T06:01:28.1293,0.0,0.778,0.189,7172.3,1.18,233.3,233.8,233.8,0.001,49.99,6182.95,855.65,70.0,-0.189,0.0,2.39,0.0,0.001,0.001,0.03,10.71625
2022-09-04T06:04:31.8669,0.0,0.778,0.103,7172.31,1.19,234.8,233.1,233.1,0.0,50.0,6182.95,855.65,70.0,-0.103,0.0,2.41,0.0,0.001,0.001,0.03,10.71875
2022-09-04T06:07:35.4047,0.0,0.778,0.102,7172.31,1.19,232.8,234.3,233.8,0.0,49.99,6182.95,855.65,70.0,-0.102,0.0,2.42,0.0,0.001,0.001,0.03,10.72
2022-09-04T06:10:38.767,0.0,0.778,0.096,7172.32,1.2,233.0,234.0,232.3,-0.001,50.0,6182.95,855.65,70.0,-0.096,0.0,2.44,0.0,0.001,0.001,0.03,10.72125
2022-09-04T06:13:42.0483,0.0,0.778,0.097,7172.32,1.2,232.8,234.6,233.1,0.0,50.0,6182.95,855.65,70.0,-0.097,0.0,2.45,0.0,0.001,0.001,0.03,10.725
2022-09-04T06:16:45.2503,0.0,0.778,0.102,7172.33,1.21,234.6,234.6,233.5,-0.001,50.0,6182.95,855.65,70.0,-0.102,0.0,2.46,0.0,0.001,0.001,0.03,10.7275
2022-09-04T06:19:48.6564,0.0,0.778,0.197,7172.34,1.22,234.6,235.3,233.3,-0.001,50.0,6182.95,855.65,70.0,-0.197,0.0,2.48,0.0,0.001,0.001,0.03,10.72875
2022-09-04T06:22:52.1418,0.0,0.778,0.1,7172.35,1.23,234.3,234.3,233.3,0.0,50.0,6182.95,855.65,70.0,-0.1,0.0,2.51,0.0,0.001,0.001,0.03,10.73
2022-09-04T06:25:55.3996,0.0,0.778,0.098,7172.35,1.23,234.8,234.3,232.8,0.0,49.99,6182.95,855.65,70.0,-0.099,0.0,2.53,0.0,0.001,0.001,0.03,10.73125
2022-09-04T06:28:58.8963,0.0,0.778,0.067,7172.36,1.24,234.3,235.3,232.3,-0.003,50.0,6182.95,855.65,70.0,-0.067,0.0,2.55,0.0,0.001,0.001,0.03,10.73375
2022-09-04T06:32:02.292626,0.0,0.778,0.063,7172.36,1.24,233.8,233.8,232.3,0.002,50.0,6182.95,855.65,70.0,-0.063,0.0,2.56,0.0,0.001,0.001,0.03,10.735
2022-09-04T06:35:05.560472,0.0,0.778,0.087,7172.36,1.24,234.1,233.6,233.8,0.009,50.0,6182.95,855.65,70.0,-0.087,0.0,2.56,0.0,0.001,0.001,0.03,10.73625
2022-09-04T06:38:08.732911,0.0,0.778,0.161,7172.37,1.25,234.3,234.5,234.3,-0.001,50.0,6182.95,855.65,70.0,-0.161,0.0,2.58,0.0,0.001,0.001,0.03,10.7375
2022-09-04T06:41:12.2037,0.0,0.778,0.014,7172.38,1.26,234.0,234.1,233.5,-0.288,50.0,6182.95,855.65,70.0,-0.014,0.0,2.6,0.0,0.002,0.001,0.03,10.74
2022-09-04T06:44:15.7059,0.003,0.778,0.061,7172.38,1.26,232.6,235.1,234.0,-0.001,50.0,6182.95,855.65,70.0,-0.058,0.0,2.61,0.0,0.001,0.001,0.03,10.74125
2022-09-04T06:47:19.0569,0.005,0.778,0.058,7172.38,1.26,233.3,234.1,233.3,-0.001,49.97,6182.95,855.65,69.0,-0.053,0.0,2.63,0.0,0.001,0.001,0.03,10.7425
2022-09-04T06:50:22.3106,0.008,0.778,0.059,7172.39,1.27,233.3,235.3,233.3,0.0,49.97,6182.95,855.65,69.0,-0.051,0.0,2.63,0.0,0.001,0.001,0.03,10.74375
2022-09-04T06:53:25.8179,0.01,0.778,0.06,7172.39,1.27,233.6,233.3,232.6,0.0,50.0,6182.95,855.65,69.0,-0.05,0.0,2.64,0.0,0.001,0.001,0.03,10.745
2022-09-04T06:56:29.2191,0.023,0.778,0.166,7172.39,1.27,232.5,235.1,233.6,-0.001,50.0,6182.95,855.65,69.0,-0.143,0.0,2.66,0.0,0.001,0.001,0.03,10.75
2022-09-04T06:59:32.5462,0.044,1.727,1.724,7172.42,1.3,229.8,237.1,234.8,-0.003,49.99,6182.95,855.65,69.0,-1.68,0.0,2.66,0.0,0.002,0.001,0.03,10.75125
2022-09-04T07:02:35.8366,0.03,1.728,0.086,7172.47,1.35,234.1,236.1,232.6,-0.002,50.0,6182.95,855.65,69.0,-0.056,0.0,2.69,0.0,0.001,0.001,0.03,10.7525
2022-09-04T07:05:39.5235,0.042,1.728,0.084,7172.48,1.36,234.3,235.5,233.8,0.0,50.0,6182.95,855.65,69.0,-0.042,0.0,2.75,0.0,0.001,0.001,0.03,10.75375
2022-09-04T07:08:42.7248,0.057,1.728,0.072,7172.48,1.36,233.1,235.1,233.0,0.001,49.97,6182.95,855.65,69.0,-0.015,0.0,2.76,0.0,0.001,0.001,0.03,10.75625
2022-09-04T07:11:46.1495,0.082,1.728,0.063,7172.48,1.36,234.1,235.8,233.8,0.0,50.02,6182.95,855.65,69.0,0.019,0.0,2.77,0.0,0.001,0.001,0.03,10.7575
2022-09-04T07:14:49.6579,0.119,1.728,0.048,7172.49,1.37,233.6,235.3,233.6,-0.004,50.0,6182.95,855.65,69.0,0.071,0.0,2.78,0.0,0.001,0.001,0.03,10.75875
2022-09-04T07:17:52.8058,0.197,1.728,1.674,7172.51,1.39,229.6,238.6,235.6,0.003,50.0,6182.95,855.66,69.0,-1.477,0.0,2.78,0.0,0.002,0.001,0.03,10.76
2022-09-04T07:20:56.3693,0.0,1.728,0.0,7172.53,1.41,234.6,234.1,233.3,-0.123,50.0,6182.95,855.66,69.0,0.0,0.0,2.82,0.0,0.001,0.001,0.03,10.7625
2022-09-04T07:23:59.7185,0.218,1.728,0.073,7172.53,1.41,232.3,235.3,233.8,-0.004,49.97,6182.95,855.66,69.0,0.145,0.01,2.82,0.0,0.001,0.001,0.03,10.76375
2022-09-04T07:27:03.245447,0.221,1.728,0.216,7172.54,1.42,232.8,232.8,232.8,-0.006,50.02,6182.95,855.67,69.0,0.005,0.02,2.83,0.0,0.001,0.001,0.03,10.765
2022-09-04T07:30:06.389524,0.279,1.728,0.156,7172.55,1.43,234.6,235.6,235.8,-0.015,49.99,6182.95,855.67,69.0,0.123,0.02,2.83,0.0,0.001,0.001,0.03,10.76625
2022-09-04T07:33:09.631685,0.308,1.728,0.158,7172.56,1.44,234.8,236.1,234.8,0.009,49.97,6182.95,855.67,69.0,0.15,0.02,2.83,0.0,0.001,0.001,0.03,10.76875
2022-09-04T07:36:13.1093,0.435,1.728,0.224,7172.57,1.45,233.6,234.1,233.0,-0.007,50.0,6182.95,855.67,69.0,0.211,0.02,2.83,0.0,0.001,0.001,0.03,10.77
2022-09-04T07:39:16.1911,0.567,1.728,0.212,7172.58,1.46,234.0,234.6,232.8,-0.003,49.97,6182.95,855.67,69.0,0.355,0.03,2.83,0.0,0.001,0.001,0.03,10.77375
2022-09-04T07:42:19.6831,0.904,1.728,0.141,7172.58,1.46,234.1,233.3,232.3,0.004,49.97,6182.95,855.67,69.0,0.763,0.03,2.83,0.0,0.001,0.001,0.029,10.775
2022-09-04T07:45:23.1734,1.049,1.728,0.072,7172.59,1.47,233.1,235.8,232.3,0.0,49.97,6182.95,855.67,69.0,0.977,0.06,2.83,0.0,0.001,0.001,0.03,10.77625
2022-09-04T07:48:25.6463,1.256,1.728,0.0,7172.59,1.47,233.6,235.3,232.3,0.002,49.95,6182.95,855.67,69.0,1.256,0.09,2.83,0.0,0.001,0.001,0.03,10.77875
2022-09-04T07:51:34.279,,,,,,,,,,,,,,,,,,0.001,0.001,0.03,10.78
2022-09-04T07:54:31.8297,1.489,1.728,0.0,7172.59,1.47,237.3,235.8,235.1,0.159,50.0,6182.97,855.67,70.0,1.489,0.25,2.83,0.0,0.002,0.001,0.03,10.78125
2022-09-04T07:57:35.4761,0.324,1.728,0.22,7172.59,1.47,233.8,234.0,233.6,0.004,50.0,6182.97,855.67,70.0,0.104,0.31,2.83,0.0,0.001,0.001,0.03,10.7825
2022-09-04T08:00:38.9795,0.362,1.728,0.095,7172.6,1.48,234.1,233.8,232.1,-0.004,50.02,6182.97,855.67,70.0,0.267,0.33,2.83,0.0,0.001,0.001,0.03,10.785
2022-09-04T08:03:42.3004,1.506,1.728,0.0,7172.6,1.48,235.0,234.8,230.8,0.297,50.0,6182.97,855.67,70.0,1.506,0.33,2.83,0.0,0.002,0.001,0.029,10.78625
2022-09-04T08:06:45.8447,0.704,1.728,0.0,7172.6,1.48,232.1,234.8,233.0,0.049,50.0,6182.99,855.67,70.0,0.735,0.39,2.83,0.0,0.001,0.001,0.03,10.7875
2022-09-04T08:09:49.26,1.327,1.728,0.0,7172.6,1.48,233.1,235.0,231.6,0.285,49.99,6183.0,855.67,70.0,1.327,0.44,2.83,0.0,0.001,0.001,0.029,10.78875
2022-09-04T08:12:52.7531,1.233,1.728,0.0,7172.6,1.48,234.8,234.8,232.3,-0.713,50.0,6183.0,855.67,70.0,1.233,0.47,2.83,0.0,0.001,0.001,0.03,10.79
2022-09-04T08:15:56.0658,2.02,1.728,0.0,7172.6,1.48,236.0,234.3,232.8,0.464,50.0,6183.02,855.67,70.0,2.02,0.53,2.83,0.0,0.001,0.001,0.029,10.7925
2022-09-04T08:18:59.7107,2.12,1.728,0.0,7172.6,1.48,238.8,236.8,235.3,0.66,50.0,6183.06,855.67,71.0,2.12,0.6,2.83,0.0,0.001,0.001,0.03,10.795
2022-09-04T08:22:02.895804,2.159,1.728,0.0,7172.6,1.48,240.0,236.1,235.1,0.682,50.0,6183.08,855.67,71.0,2.167,0.71,2.83,0.0,0.001,0.001,0.03,10.79625
2022-09-04T08:25:06.483119,2.254,1.728,0.0,7172.6,1.48,238.1,233.8,233.3,0.713,50.0,6183.12,855.67,71.0,2.254,0.83,2.83,0.0,0.001,0.001,0.03,10.79875
2022-09-04T08:28:09.856718,2.352,1.728,0.0,7172.6,1.48,237.8,232.1,235.1,0.739,50.0,6183.16,855.67,72.0,2.352,0.93,2.83,0.0,0.002,0.001,0.03,10.80125
2022-09-04T08:31:13.4124,2.436,1.728,0.0,7172.6,1.48,237.8,232.6,234.5,0.773,49.97,6183.2,855.67,72.0,2.436,1.05,2.83,0.0,0.001,0.001,0.03,10.8025
2022-09-04T08:34:16.9436,2.489,1.728,0.0,7172.6,1.48,236.6,235.0,233.8,0.701,49.97,6183.24,855.67,72.0,2.489,1.16,2.83,0.0,0.001,0.001,0.03,10.80375
2022-09-04T08:37:20.2062,2.579,1.728,0.0,7172.6,1.48,241.8,237.3,237.1,0.732,50.0,6183.27,855.67,72.0,2.579,1.27,2.83,0.0,0.001,0.001,0.03,10.805
2022-09-04T08:40:23.5871,2.618,1.728,0.0,7172.6,1.48,240.8,238.8,236.1,0.81,49.99,6183.31,855.67,73.0,2.618,1.4,2.83,0.0,0.002,0.001,0.03,10.8075
2022-09-04T08:43:27.0089,2.705,1.728,0.0,7172.6,1.48,240.6,234.8,234.8,0.83,50.0,6183.35,855.67,73.0,2.705,1.52,2.83,0.0,0.001,0.001,0.03,10.80875
2022-09-04T08:46:30.431,2.79,1.728,0.0,7172.6,1.48,240.3,236.0,232.8,0.855,49.97,6183.39,855.67,74.0,2.79,1.62,2.83,0.0,0.001,0.001,0.03,10.81
2022-09-04T08:49:33.9027,2.858,1.728,0.0,7172.6,1.48,240.1,233.3,232.6,0.879,49.97,6183.43,855.67,74.0,2.858,1.72,2.83,0.0,0.001,0.001,0.03,10.81125
2022-09-04T08:52:37.3154,2.936,1.728,0.0,7172.6,1.48,240.1,234.6,232.1,0.815,50.0,6183.49,855.67,74.0,2.936,1.86,2.83,0.0,0.001,0.001,0.029,10.81375
2022-09-04T08:55:40.862,3.026,1.728,0.0,7172.6,1.48,239.8,234.6,232.8,0.849,49.99,6183.52,855.67,75.0,3.026,1.98,2.83,0.0,0.001,0.001,0.03,10.815
2022-09-04T08:58:44.2538,3.029,1.728,0.0,7172.6,1.48,243.8,240.6,232.3,0.939,50.0,6183.58,855.67,75.0,3.029,2.13,2.83,0.0,0.002,0.001,0.029,10.8175
2022-09-04T09:01:47.7949,3.148,1.728,0.0,7172.6,1.48,243.6,238.8,235.3,0.988,50.0,6183.62,855.67,76.0,3.148,2.27,2.83,0.0,0.001,0.001,0.03,10.81875
2022-09-04T09:04:51.1471,3.23,1.728,0.0,7172.6,1.48,243.0,239.0,233.8,1.009,49.97,6183.68,855.67,76.0,3.23,2.41,2.83,0.0,0.001,0.001,0.03,10.82125
2022-09-04T09:07:54.4717,3.253,1.728,0.0,7172.6,1.48,243.6,242.1,235.3,1.017,49.99,6183.72,855.67,77.0,3.253,2.57,2.83,0.0,0.001,0.001,0.03,10.82375
2022-09-04T09:10:57.868,3.31,1.728,0.0,7172.6,1.48,242.1,239.3,232.1,1.035,49.99,6183.77,855.67,77.0,3.31,2.81,2.83,0.0,0.001,0.001,0.029,10.825
2022-09-04T09:14:03.448029,3.374,1.728,0.0,7172.6,1.48,240.8,238.3,233.8,0.965,49.97,6183.83,855.67,78.0,3.368,2.97,2.83,0.0,0.001,0.001,0.03,10.82625
2022-09-04T09:17:03.684759,3.421,1.728,0.0,7172.6,1.48,238.3,236.3,233.3,1.081,50.0,6183.87,855.67,78.0,3.421,3.13,2.83,0.0,0.001,0.001,0.03,10.8275
2022-09-04T09:20:06.886875,3.479,1.728,0.0,7172.6,1.48,239.8,237.1,232.8,1.092,50.02,6183.93,855.67,79.0,3.479,3.3,2.83,0.0,0.001,0.001,0.029,10.83