File: docs/data/huawei/huawei_sun2000_20220904193653.csv
local_time,input_power,day_active_power_peak,active_power,accumulated_yield_energy,daily_yield_energy,grid_voltage_a_phase,b_phase_voltage,c_phase_voltage,power_meter_active_power,grid_frequency,grid_exported_energy,grid_accumulated_energy,storage_state_of_capacity,storage_charge_discharge_power,storage_current_day_charge_capacity,storage_current_day_discharge_capacity,backup_switch_to_off_grid,a_phase_active_power,b_phase_active_power,c_phase_active_power,forward_energy
2022-09-04T19:39:01.203852,0.0,6.354,1.054,7203.4,32.28,227.1,236.3,233.6,-0.033,49.95,6220.35,855.92,86.0,-1.054,8.55,5.85,0.0,0.001,0.001,0.03,12.13875
2022-09-04T19:43:36.4337,0.0,6.354,0.977,7203.49,32.37,229.1,233.8,233.8,0.0,49.93,6220.35,855.92,86.0,-0.977,8.55,5.97,0.0,0.001,0.001,0.03,12.14125
2022-09-04T19:48:11.5347,0.0,6.354,0.969,7203.56,32.44,229.3,234.0,234.3,0.014,49.97,6220.35,855.92,86.0,-0.969,8.55,6.03,0.0,0.001,0.001,0.03,12.14375
2022-09-04T19:52:46.4572,0.0,6.354,0.881,7203.63,32.51,228.6,235.3,233.8,-0.001,49.97,6220.35,855.92,85.0,-0.881,8.55,6.15,0.0,0.002,0.001,0.03,12.1475
2022-09-04T19:57:21.666,0.0,6.354,0.818,7203.69,32.57,227.3,237.1,235.0,-0.049,49.97,6220.35,855.92,85.0,-0.818,8.55,6.21,0.0,0.001,0.001,0.03,12.15
2022-09-04T20:01:56.5877,0.0,6.354,0.796,7203.75,32.63,228.8,237.1,235.8,0.006,49.97,6220.35,855.92,85.0,-0.796,8.55,6.31,0.0,0.001,0.001,0.03,12.1525
2022-09-04T20:06:31.6053,0.0,6.354,0.811,7203.81,32.69,229.3,234.3,234.3,0.059,49.99,6220.35,855.92,84.0,-0.811,8.55,6.36,0.0,0.001,0.001,0.03,12.155
2022-09-04T20:11:06.606217,0.0,6.354,0.85,7203.87,32.75,228.3,236.3,234.3,-0.001,49.99,6220.35,855.92,84.0,-0.852,8.55,6.46,0.0,0.001,0.001,0.03,12.1575
2022-09-04T20:15:41.3618,0.0,6.354,1.004,7203.94,32.82,227.6,236.3,234.6,-0.042,49.97,6220.35,855.92,84.0,-1.004,8.55,6.55,0.0,0.001,0.001,0.03,12.16
2022-09-04T20:20:16.4783,0.0,6.354,1.146,7204.02,32.9,229.6,231.8,234.6,-0.001,49.97,6220.35,855.92,84.0,-1.146,8.55,6.62,0.0,0.002,0.001,0.03,12.16125
2022-09-04T20:24:51.7257,0.0,6.354,1.061,7204.11,32.99,229.8,235.1,235.1,-0.001,50.02,6220.35,855.92,83.0,-1.061,8.55,6.74,0.0,0.002,0.001,0.03,12.165
2022-09-04T20:29:26.9333,0.0,6.354,1.079,7204.18,33.06,228.8,233.6,235.1,0.0,50.0,6220.35,855.92,83.0,-1.079,8.55,6.81,0.0,0.002,0.001,0.03,12.1675
2022-09-04T20:34:02.025432,0.0,6.354,1.037,7204.26,33.14,230.6,231.8,236.1,0.007,50.0,6220.35,855.92,83.0,-1.037,8.55,6.94,0.0,0.002,0.001,0.03,12.17125
2022-09-04T20:38:37.0911,0.0,6.354,1.117,7204.35,33.23,230.1,234.8,236.1,0.006,50.0,6220.35,855.92,82.0,-1.117,8.55,7.05,0.0,0.002,0.001,0.03,12.17375
2022-09-04T20:43:12.1994,0.0,6.354,0.936,7204.43,33.31,230.0,235.6,234.3,-0.038,50.02,6220.35,855.92,82.0,-0.936,8.55,7.13,0.0,0.001,0.001,0.03,12.17625
2022-09-04T20:47:47.466,0.0,6.354,0.937,7204.5,33.38,230.6,233.6,234.6,-0.056,49.99,6220.35,855.92,82.0,-0.937,8.55,7.23,0.0,0.002,0.001,0.03,12.17875
2022-09-04T20:52:22.634,0.0,6.354,0.892,7204.57,33.45,227.5,234.3,234.3,0.005,50.0,6220.35,855.94,82.0,-0.892,8.55,7.29,0.0,0.002,0.001,0.03,12.18
2022-09-04T20:56:57.5365,0.0,6.354,0.488,7204.63,33.51,228.8,235.5,235.6,0.001,50.0,6220.35,855.94,81.0,-0.488,8.55,7.4,0.0,0.001,0.001,0.03,12.1825
2022-09-04T21:01:32.6203,0.0,6.354,0.75,7204.68,33.56,229.3,236.5,235.3,0.016,49.95,6220.35,855.94,81.0,-0.75,8.55,7.48,0.0,0.001,0.001,0.03,12.18625
2022-09-04T21:06:07.633436,0.0,6.354,0.679,7204.73,33.61,230.8,233.5,234.3,-0.005,49.93,6220.35,855.94,81.0,-0.679,8.55,7.54,0.0,0.001,0.001,0.03,12.18875
2022-09-04T21:10:42.8228,0.0,6.354,0.674,7204.78,33.66,232.1,232.6,233.1,-0.002,49.97,6220.35,855.94,81.0,-0.674,8.55,7.62,0.0,0.001,0.001,0.029,12.19125
2022-09-04T21:15:18.138,0.0,6.354,0.606,7204.83,33.71,230.8,232.6,233.1,0.002,50.02,6220.35,855.94,80.0,-0.606,8.55,7.66,0.0,0.001,0.001,0.03,12.195
2022-09-04T21:19:53.2658,0.0,6.354,0.525,7204.87,33.75,232.1,233.1,234.1,-0.008,50.0,6220.35,855.94,80.0,-0.525,8.55,7.74,0.0,0.001,0.001,0.03,12.1975
2022-09-04T21:24:28.7032,0.0,6.354,0.558,7204.91,33.79,230.6,232.6,235.1,-0.005,50.0,6220.35,855.94,80.0,-0.558,8.55,7.82,0.0,0.002,0.001,0.03,12.19875
2022-09-04T21:29:03.564376,0.0,6.354,0.549,7204.95,33.83,231.0,232.5,234.6,0.003,50.02,6220.35,855.94,80.0,-0.549,8.55,7.86,0.0,0.001,0.001,0.03,12.20125
2022-09-04T21:33:38.4546,0.0,6.354,0.698,7205.0,33.88,232.1,235.1,231.8,0.007,50.0,6220.35,855.94,80.0,-0.698,8.55,7.9,0.0,0.002,0.001,0.029,12.20375
2022-09-04T21:38:13.6712,0.0,6.354,0.56,7205.05,33.93,232.8,230.8,235.6,0.001,50.04,6220.35,855.94,79.0,-0.56,8.55,7.99,0.0,0.002,0.001,0.03,12.20625
2022-09-04T21:42:48.9242,0.0,6.354,0.562,7205.09,33.97,232.3,234.6,235.1,0.004,50.02,6220.35,855.94,79.0,-0.562,8.55,8.03,0.0,0.002,0.001,0.03,12.21
2022-09-04T21:47:23.9381,0.0,6.354,0.838,7205.15,34.03,230.3,234.5,234.6,-0.034,50.02,6220.35,855.94,79.0,-0.838,8.55,8.12,0.0,0.001,0.001,0.03,12.2125
2022-09-04T21:51:59.0713,0.0,6.354,0.949,7205.22,34.1,232.8,233.6,234.5,-0.015,50.02,6220.35,855.94,79.0,-0.949,8.55,8.22,0.0,0.002,0.001,0.03,12.215
2022-09-04T21:56:33.9656,0.0,6.354,0.556,7205.28,34.16,231.6,233.8,234.0,0.0,50.02,6220.35,855.94,79.0,-0.556,8.55,8.27,0.0,0.002,0.001,0.03,12.2175
2022-09-04T22:01:09.170390,0.0,6.354,0.569,7205.32,34.2,231.8,233.6,235.3,-0.026,49.93,6220.35,855.94,78.0,-0.569,8.55,8.36,0.0,0.001,0.001,0.03,12.22
2022-09-04T22:05:44.4006,0.0,6.354,0.42,7205.36,34.24,231.0,234.8,234.8,0.001,49.95,6220.35,855.94,78.0,-0.42,8.55,8.39,0.0,0.001,0.001,0.03,12.2225
2022-09-04T22:10:19.5366,0.0,6.354,0.572,7205.39,34.27,229.8,235.8,233.8,0.001,49.97,6220.35,855.94,78.0,-0.571,8.55,8.47,0.0,0.001,0.001,0.03,12.225
2022-09-04T22:14:54.5194,0.0,6.354,0.433,7205.43,34.31,233.3,235.1,233.3,0.002,50.02,6220.35,855.94,78.0,-0.433,8.55,8.52,0.0,0.001,0.001,0.03,12.2275
2022-09-04T22:19:29.4599,0.0,6.354,0.35,7205.46,34.34,233.6,236.6,235.3,0.0,49.99,6220.35,855.94,78.0,-0.35,8.55,8.55,0.0,0.001,0.001,0.03,12.23125
2022-09-04T22:24:04.650796,0.0,6.354,0.342,7205.49,34.37,234.6,235.8,233.3,-0.001,49.99,6220.35,855.94,77.0,-0.342,8.55,8.6,0.0,0.001,0.001,0.03,12.23375
2022-09-04T22:28:39.8848,0.0,6.354,0.499,7205.52,34.4,230.6,232.1,231.0,0.001,49.99,6220.35,855.94,77.0,-0.499,8.55,8.64,0.0,0.001,0.001,0.029,12.235
2022-09-04T22:33:14.7607,0.0,6.354,0.427,7205.56,34.44,230.1,233.0,231.3,0.003,49.97,6220.35,855.94,77.0,-0.427,8.55,8.7,0.0,0.001,0.001,0.029,12.2375
2022-09-04T22:37:49.8451,0.0,6.354,0.418,7205.59,34.47,230.1,231.8,231.8,0.004,50.0,6220.35,855.94,77.0,-0.418,8.55,8.77,0.0,0.001,0.001,0.029,12.24
2022-09-04T22:42:25.2012,0.0,6.354,0.517,7205.62,34.5,231.8,235.6,235.0,0.0,50.0,6220.35,855.94,77.0,-0.509,8.55,8.79,0.0,0.001,0.001,0.03,12.24375
2022-09-04T22:47:00.122416,0.0,6.354,0.507,7205.66,34.54,231.0,235.8,235.3,-0.003,50.02,6220.35,855.94,77.0,-0.507,8.55,8.86,0.0,0.001,0.001,0.03,12.24625
2022-09-04T22:51:35.417,0.0,6.354,0.596,7205.7,34.58,231.5,237.3,233.8,0.007,49.97,6220.35,855.94,76.0,-0.596,8.55,8.9,0.0,0.001,0.001,0.03,12.24875
2022-09-04T22:56:10.4806,0.0,6.354,0.458,7205.74,34.62,234.3,236.3,233.1,0.001,49.97,6220.35,855.94,76.0,-0.458,8.55,8.97,0.0,0.001,0.001,0.03,12.25125
2022-09-04T23:00:45.4062,0.0,6.354,0.439,7205.78,34.66,232.3,236.3,232.5,-0.053,49.95,6220.35,855.94,76.0,-0.439,8.55,9.0,0.0,0.001,0.001,0.029,12.25375
2022-09-04T23:05:20.3517,0.0,6.354,0.308,7205.8,34.68,233.1,234.8,232.6,-0.002,49.97,6220.35,855.94,76.0,-0.308,8.55,9.07,0.0,0.001,0.001,0.03,12.25625
2022-09-04T23:09:55.76,0.0,6.354,0.607,7205.84,34.72,234.0,238.3,236.6,0.0,50.0,6220.35,855.94,76.0,-0.614,8.55,9.13,0.0,0.001,0.001,0.03,12.25875
2022-09-04T23:14:30.7001,0.0,6.354,0.402,7205.87,34.75,231.3,234.1,231.8,0.014,50.0,6220.35,855.94,76.0,-0.402,8.55,9.15,0.0,0.001,0.001,0.03,12.26125
2022-09-04T23:19:05.770195,0.0,6.354,0.571,7205.91,34.79,229.5,231.3,232.1,0.001,50.0,6220.35,855.94,75.0,-0.571,8.55,9.22,0.0,0.002,0.001,0.03,12.26375
2022-09-04T23:23:40.7161,0.0,6.354,0.39,7205.95,34.83,231.1,230.8,232.6,-0.002,50.02,6220.35,855.94,75.0,-0.39,8.55,9.26,0.0,0.001,0.001,0.03,12.2675
2022-09-04T23:28:15.9288,0.0,6.354,0.48,7205.98,34.86,234.3,235.6,234.3,0.001,50.02,6220.35,855.94,75.0,-0.48,8.55,9.32,0.0,0.001,0.001,0.03,12.26875
2022-09-04T23:32:50.9441,0.0,6.354,0.521,7206.02,34.9,229.8,233.6,231.6,0.0,50.0,6220.35,855.94,75.0,-0.521,8.55,9.37,0.0,0.001,0.001,0.029,12.27125
2022-09-04T23:37:25.9775,0.0,6.354,0.651,7206.06,34.94,231.1,233.6,228.8,-0.015,49.99,6220.35,855.95,75.0,-0.651,8.55,9.41,0.0,0.001,0.001,0.029,12.27375
2022-09-04T23:42:01.202251,0.0,6.354,0.465,7206.11,34.99,231.8,235.1,230.8,-0.016,50.0,6220.35,855.95,75.0,-0.465,8.55,9.5,0.0,0.001,0.001,0.029,12.2775
2022-09-04T23:46:36.3768,0.0,6.354,0.57,7206.15,35.03,230.6,233.8,230.0,-0.009,50.0,6220.35,855.95,74.0,-0.57,8.55,9.54,0.0,0.001,0.001,0.029,12.28
2022-09-04T23:51:11.2797,0.0,6.354,0.362,7206.19,35.07,231.1,234.3,230.0,-0.002,50.0,6220.35,855.95,74.0,-0.362,8.55,9.62,0.0,0.002,0.001,0.029,12.2825
2022-09-04T23:55:46.7948,0.0,6.354,0.446,7206.22,35.1,231.3,233.6,229.3,-0.004,50.0,6220.35,855.95,74.0,-0.443,8.55,9.67,0.0,0.002,0.001,0.029,12.28375
2022-09-05T00:00:21.8024,0.0,0.299,0.292,7206.24,0.0,236.3,235.8,234.3,0.0,49.97,6220.35,855.95,74.0,-0.292,0.0,0.0,0.0,0.001,0.001,0.03,12.28625
2022-09-05T00:04:56.8892,0.0,0.386,0.197,7206.26,0.02,234.0,233.8,230.8,-0.003,49.97,6220.35,855.95,74.0,-0.197,0.0,0.06,0.0,0.001,0.001,0.029,12.29
2022-09-05T00:09:31.8094,0.0,0.386,0.179,7206.27,0.03,234.8,234.6,229.3,-0.001,49.97,6220.35,855.95,74.0,-0.179,0.0,0.09,0.0,0.001,0.001,0.029,12.2925
2022-09-05T00:14:06.904035,0.0,0.386,0.154,7206.28,0.04,232.1,234.1,232.1,0.0,50.0,6220.35,855.95,74.0,-0.154,0.0,0.11,0.0,0.001,0.001,0.029,12.295
2022-09-05T00:18:41.9499,0.0,0.386,0.162,7206.3,0.06,232.8,232.3,232.8,0.0,50.0,6220.35,855.95,74.0,-0.162,0.0,0.13,0.0,0.001,0.001,0.03,12.2975
2022-09-05T00:23:16.9278,0.0,0.386,0.157,7206.31,0.07,232.3,234.3,234.3,0.0,50.0,6220.35,855.95,74.0,-0.157,0.0,0.17,0.0,0.001,0.001,0.03,12.3
2022-09-05T00:27:51.9077,0.0,0.386,0.243,7206.33,0.09,230.8,232.8,233.3,-0.004,50.02,6220.35,855.95,73.0,-0.243,0.0,0.2,0.0,0.001,0.001,0.03,12.3025
2022-09-05T00:32:27.1003,0.0,0.386,0.153,7206.34,0.1,232.6,231.3,233.8,0.0,49.99,6220.35,855.95,73.0,-0.153,0.0,0.23,0.0,0.001,0.001,0.03,12.305
2022-09-05T00:37:02.424980,0.0,0.386,0.151,7206.35,0.11,231.3,232.6,232.8,0.0,50.0,6220.35,855.95,73.0,-0.15,0.0,0.25,0.0,0.001,0.001,0.03,12.3075
2022-09-05T00:41:37.5414,0.0,0.386,0.142,7206.36,0.12,232.6,232.3,232.1,0.0,50.0,6220.35,855.95,73.0,-0.143,0.0,0.29,0.0,0.001,0.001,0.029,12.31
2022-09-05T00:46:12.5379,0.0,0.386,0.245,7206.38,0.14,231.6,232.6,232.8,0.003,49.97,6220.35,855.95,73.0,-0.245,0.0,0.32,0.0,0.001,0.001,0.03,12.3125
2022-09-05T00:50:47.5532,0.0,0.386,0.148,7206.4,0.15,232.0,233.8,232.6,-0.001,50.0,6220.35,855.95,73.0,-0.148,0.0,0.34,0.0,0.001,0.001,0.029,12.315
2022-09-05T00:55:22.6156,0.0,0.386,0.15,7206.41,0.17,232.8,234.3,233.6,0.003,50.02,6220.35,855.95,73.0,-0.15,0.0,0.37,0.0,0.001,0.001,0.03,12.3175
2022-09-05T00:59:57.5162,0.0,0.386,0.152,7206.42,0.18,233.6,234.6,233.6,0.0,49.99,6220.35,855.95,73.0,-0.152,0.0,0.39,0.0,0.001,0.001,0.03,12.32
2022-09-05T01:04:32.4942,0.0,0.386,0.244,7206.43,0.19,231.6,235.5,232.6,-0.002,49.95,6220.35,855.95,73.0,-0.244,0.0,0.43,0.0,0.001,0.001,0.03,12.3225
2022-09-05T01:09:07.836168,0.0,0.386,0.149,7206.45,0.21,234.6,235.6,233.1,0.0,49.97,6220.35,855.95,73.0,-0.149,0.0,0.46,0.0,0.001,0.002,0.029,12.32625
2022-09-05T01:13:42.8637,0.0,0.386,0.142,7206.46,0.22,232.6,234.6,232.8,-0.002,50.0,6220.35,855.95,73.0,-0.142,0.0,0.48,0.0,0.001,0.001,0.029,12.32875
2022-09-05T01:18:18.0179,0.0,0.386,0.141,7206.47,0.23,232.1,234.8,233.0,0.001,50.0,6220.35,855.95,72.0,-0.141,0.0,0.52,0.0,0.001,0.001,0.03,12.33
2022-09-05T01:22:53.041,0.0,0.386,0.185,7206.48,0.24,232.3,233.3,232.8,0.0,50.0,6220.35,855.95,72.0,-0.185,0.0,0.53,0.0,0.001,0.001,0.029,12.3325
2022-09-05T01:27:28.1794,0.0,0.386,0.086,7206.5,0.26,233.0,233.3,232.1,-0.001,50.0,6220.35,855.95,72.0,-0.086,0.0,0.57,0.0,0.001,0.001,0.03,12.335
2022-09-05T01:32:03.027072,0.0,0.386,0.088,7206.5,0.26,234.1,235.6,232.8,-0.002,49.99,6220.35,855.95,72.0,-0.088,0.0,0.58,0.0,0.001,0.001,0.03,12.33875
2022-09-05T01:36:37.8353,0.0,0.386,0.088,7206.51,0.27,231.6,233.1,231.8,0.003,49.99,6220.35,855.95,72.0,-0.088,0.0,0.61,0.0,0.001,0.001,0.029,12.34125
2022-09-05T01:41:12.8314,0.0,0.386,0.184,7206.52,0.28,232.3,233.6,232.3,0.0,49.99,6220.35,855.95,72.0,-0.184,0.0,0.64,0.0,0.001,0.001,0.03,12.34375
2022-09-05T01:45:48.2263,0.0,0.386,0.087,7206.53,0.29,231.8,232.0,233.1,0.002,50.0,6220.35,855.95,72.0,-0.087,0.0,0.65,0.0,0.001,0.001,0.03,12.345
2022-09-05T01:50:23.2038,0.0,0.386,0.087,7206.54,0.3,233.5,232.1,232.3,0.0,50.0,6220.35,855.95,72.0,-0.087,0.0,0.69,0.0,0.001,0.001,0.029,12.3475
2022-09-05T01:54:58.286,0.0,0.386,0.137,7206.55,0.31,234.1,234.3,232.8,-0.001,50.02,6220.35,855.95,72.0,-0.137,0.0,0.69,0.0,0.001,0.001,0.03,12.35125
2022-09-05T01:59:33.6638,0.0,0.386,0.247,7206.56,0.32,234.8,235.3,234.8,0.0,49.97,6220.35,855.95,72.0,-0.247,0.0,0.73,0.0,0.001,0.001,0.03,12.35375
2022-09-05T02:04:08.741046,0.0,0.386,0.143,7206.58,0.34,234.6,235.3,234.1,0.002,49.93,6220.35,855.95,72.0,-0.143,0.0,0.77,0.0,0.001,0.001,0.03,12.35625
2022-09-05T02:08:43.945,0.0,0.386,0.133,7206.59,0.35,233.6,234.5,232.8,-0.003,49.97,6220.35,855.95,72.0,-0.133,0.0,0.78,0.0,0.001,0.001,0.029,12.35875
2022-09-05T02:13:19.0906,0.0,0.386,0.133,7206.6,0.36,231.8,236.1,233.8,0.0,49.97,6220.35,855.95,72.0,-0.133,0.0,0.81,0.0,0.001,0.001,0.03,12.3625
2022-09-05T02:17:54.2193,0.0,0.386,0.089,7206.61,0.37,234.1,235.1,233.3,-0.001,49.97,6220.35,855.95,72.0,-0.089,0.0,0.83,0.0,0.001,0.001,0.03,12.36375
2022-09-05T02:22:29.3541,0.0,0.386,0.177,7206.62,0.38,234.1,235.1,232.8,0.001,50.0,6220.35,855.95,71.0,-0.177,0.0,0.87,0.0,0.001,0.001,0.029,12.36625
2022-09-05T02:27:04.422263,0.0,0.386,0.085,7206.63,0.39,233.6,234.6,233.3,-0.001,49.97,6220.35,855.95,71.0,-0.084,0.0,0.9,0.0,0.001,0.001,0.03,12.36875
2022-09-05T02:31:39.7647,0.0,0.386,0.084,7206.63,0.39,232.1,234.3,232.6,0.0,49.97,6220.35,855.95,71.0,-0.084,0.0,0.91,0.0,0.001,0.001,0.029,12.37125
2022-09-05T02:36:15.1353,0.0,0.386,0.086,7206.64,0.4,233.3,233.8,232.1,-0.001,49.97,6220.35,855.95,71.0,-0.086,0.0,0.93,0.0,0.001,0.001,0.029,12.375
2022-09-05T02:40:49.9636,0.0,0.386,0.179,7206.65,0.41,232.1,233.5,232.8,0.001,50.0,6220.35,855.95,71.0,-0.179,0.0,0.95,0.0,0.001,0.001,0.03,12.3775
2022-09-05T02:45:25.2104,0.0,0.386,0.088,7206.66,0.42,232.8,233.8,232.6,-0.002,50.0,6220.35,855.95,71.0,-0.088,0.0,0.97,0.0,0.001,0.001,0.03,12.37875
2022-09-05T02:50:00.412569,0.0,0.386,0.129,7206.67,0.43,233.8,235.6,234.0,0.001,50.02,6220.35,855.95,71.0,-0.129,0.0,1.0,0.0,0.001,0.001,0.03,12.38125
2022-09-05T02:54:35.5631,0.0,0.386,0.13,7206.68,0.44,234.1,235.3,234.1,0.002,50.0,6220.35,855.95,71.0,-0.13,0.0,1.04,0.0,0.001,0.001,0.03,12.38375
2022-09-05T02:59:10.2974,0.0,0.386,0.226,7206.7,0.46,233.8,235.5,233.8,-0.001,50.0,6220.35,855.95,71.0,-0.226,0.0,1.05,0.0,0.001,0.001,0.03,12.3875
2022-09-05T03:03:45.3088,0.0,0.386,0.129,7206.71,0.47,235.8,236.6,233.8,0.001,49.99,6220.35,855.95,71.0,-0.129,0.0,1.09,0.0,0.001,0.001,0.03,12.39
2022-09-05T03:08:20.371,0.0,0.386,0.124,7206.72,0.48,233.3,234.6,232.8,0.001,49.97,6220.35,855.95,71.0,-0.124,0.0,1.11,0.0,0.001,0.001,0.03,12.3925
2022-09-05T03:12:55.4291,0.0,0.386,0.084,7206.73,0.49,233.6,234.6,232.8,0.0,49.97,6220.35,855.95,71.0,-0.084,0.0,1.14,0.0,0.001,0.001,0.03,12.39375
2022-09-05T03:17:30.5393,0.0,0.386,0.173,7206.74,0.5,233.6,233.8,232.8,0.0,49.99,6220.35,855.95,71.0,-0.173,0.0,1.17,0.0,0.001,0.001,0.029,12.3975
2022-09-05T03:22:05.648511,0.0,0.386,0.077,7206.75,0.51,233.8,234.6,233.6,-0.003,49.99,6220.35,855.95,71.0,-0.077,0.0,1.19,0.0,0.001,0.001,0.03,12.4
2022-09-05T03:26:40.9404,0.0,0.386,0.08,7206.76,0.52,232.8,235.1,233.3,-0.001,50.0,6220.35,855.95,70.0,-0.08,0.0,1.21,0.0,0.001,0.001,0.03,12.4025
2022-09-05T03:31:15.8892,0.0,0.386,0.081,7206.76,0.52,232.6,234.0,231.1,0.0,49.97,6220.35,855.95,70.0,-0.081,0.0,1.23,0.0,0.001,0.001,0.029,12.405
2022-09-05T03:35:50.83,0.0,0.386,0.175,7206.77,0.53,234.5,235.0,232.3,0.0,49.97,6220.35,855.95,70.0,-0.175,0.0,1.25,0.0,0.001,0.001,0.029,12.4075
2022-09-05T03:40:25.6575,0.0,0.386,0.082,7206.78,0.54,234.6,233.1,232.3,0.0,49.97,6220.35,855.95,70.0,-0.082,0.0,1.29,0.0,0.001,0.001,0.03,12.41
2022-09-05T03:45:00.986545,0.0,0.386,0.122,7206.79,0.55,235.1,235.3,233.3,-0.001,49.99,6220.35,855.95,70.0,-0.122,0.0,1.3,0.0,0.001,0.001,0.029,12.4125
2022-09-05T03:49:36.1473,0.0,0.386,0.132,7206.8,0.56,234.1,235.6,233.3,-0.004,49.99,6220.35,855.95,70.0,-0.132,0.0,1.33,0.0,0.001,0.001,0.029,12.415
2022-09-05T03:54:10.8638,0.0,0.386,0.227,7206.81,0.57,234.3,234.8,232.6,0.002,49.99,6220.35,855.95,70.0,-0.227,0.0,1.35,0.0,0.001,0.001,0.029,12.4175
2022-09-05T03:58:45.8086,0.0,0.386,0.124,7206.83,0.59,232.8,234.3,233.0,0.003,50.0,6220.35,855.95,70.0,-0.124,0.0,1.39,0.0,0.001,0.001,0.03,12.42
2022-09-05T04:03:20.7951,0.0,0.386,0.125,7206.84,0.6,231.8,234.8,232.8,0.001,49.97,6220.35,855.95,70.0,-0.125,0.0,1.42,0.0,0.001,0.001,0.03,12.42375
2022-09-05T04:07:55.7155,0.0,0.589,0.582,7206.87,0.63,231.5,235.3,233.0,-0.005,49.99,6220.35,855.95,70.0,-0.582,0.0,1.44,0.0,0.001,0.001,0.03,12.425
2022-09-05T04:12:30.7144,0.0,0.59,0.542,7206.91,0.67,232.3,233.6,234.3,-0.086,49.97,6220.35,855.95,70.0,-0.542,0.0,1.52,0.0,0.001,0.001,0.03,12.4275
2022-09-05T04:17:05.863647,0.0,0.648,0.62,7206.96,0.72,231.3,234.8,233.1,-0.004,49.97,6220.35,855.95,69.0,-0.62,0.0,1.56,0.0,0.001,0.001,0.03,12.43
2022-09-05T04:21:40.7662,0.0,0.648,0.539,7207.0,0.76,232.6,235.3,232.8,0.0,49.97,6220.35,855.95,69.0,-0.539,0.0,1.63,0.0,0.001,0.001,0.03,12.4325
2022-09-05T04:26:15.9069,0.0,0.648,0.536,7207.04,0.8,233.0,235.6,233.6,-0.008,49.99,6220.35,855.95,69.0,-0.536,0.0,1.67,0.0,0.001,0.001,0.03,12.43625
2022-09-05T04:30:50.7856,0.0,0.648,0.541,7207.09,0.85,233.1,236.5,234.3,0.002,49.99,6220.35,855.95,69.0,-0.541,0.0,1.74,0.0,0.001,0.001,0.03,12.43875
2022-09-05T04:35:25.7816,0.0,0.711,0.624,7207.13,0.89,230.6,235.1,233.1,0.001,49.97,6220.35,855.95,68.0,-0.624,0.0,1.82,0.0,0.001,0.001,0.03,12.44125
2022-09-05T04:40:00.970320,0.0,0.711,0.54,7207.18,0.94,233.3,236.3,234.8,-0.002,49.97,6220.35,855.95,68.0,-0.54,0.0,1.86,0.0,0.001,0.001,0.03,12.4425
2022-09-05T04:44:35.8373,0.0,0.711,0.587,7207.22,0.98,232.3,235.5,234.0,0.001,49.97,6220.35,855.95,68.0,-0.587,0.0,1.93,0.0,0.001,0.001,0.03,12.44625
2022-09-05T04:49:11.2163,0.0,0.711,0.587,7207.26,1.02,233.3,236.3,234.3,0.0,50.0,6220.35,855.95,68.0,-0.587,0.0,1.97,0.0,0.001,0.002,0.03,12.44875
2022-09-05T04:53:46.3302,0.0,0.711,0.671,7207.31,1.07,231.6,235.6,233.6,-0.001,50.0,6220.35,855.95,68.0,-0.669,0.0,2.05,0.0,0.001,0.002,0.029,12.45125
2022-09-05T04:58:21.2129,0.0,0.711,0.583,7207.36,1.12,231.8,236.1,231.0,0.0,49.97,6220.35,855.95,68.0,-0.583,0.0,2.14,0.0,0.002,0.001,0.029,12.45375
2022-09-05T05:02:55.899,0.0,0.711,0.122,7207.4,1.16,234.0,235.0,232.8,0.002,50.0,6220.35,855.95,67.0,-0.122,0.0,2.18,0.0,0.001,0.001,0.03,12.45625
2022-09-05T05:07:30.7868,0.0,0.711,0.076,7207.41,1.17,232.3,233.8,230.5,0.0,50.0,6220.35,855.95,67.0,-0.076,0.0,2.22,0.0,0.001,0.001,0.029,12.45875
2022-09-05T05:12:05.892980,0.0,0.711,0.171,7207.42,1.18,232.8,233.1,230.8,0.0,50.0,6220.35,855.95,67.0,-0.171,0.0,2.24,0.0,0.001,0.001,0.029,12.46125
2022-09-05T05:16:40.93,0.0,0.711,0.076,7207.43,1.19,232.3,233.6,230.6,0.001,50.0,6220.35,855.95,67.0,-0.076,0.0,2.27,0.0,0.001,0.001,0.029,12.46375
2022-09-05T05:21:16.0922,0.0,0.711,0.076,7207.44,1.2,233.1,234.3,232.6,0.002,50.0,6220.35,855.95,67.0,-0.076,0.0,2.29,0.0,0.001,0.001,0.03,12.46625
2022-09-05T05:25:51.2798,0.0,0.711,0.082,7207.44,1.2,231.8,233.1,232.6,-0.001,49.97,6220.35,855.95,67.0,-0.082,0.0,2.32,0.0,0.001,0.001,0.029,12.47
2022-09-05T05:30:26.3092,0.0,0.711,0.161,7207.45,1.21,233.3,233.3,233.6,0.001,50.0,6220.35,855.95,67.0,-0.161,0.0,2.33,0.0,0.001,0.001,0.03,12.4725
2022-09-05T05:35:01.166950,0.0,0.711,0.066,7207.46,1.22,234.1,232.5,232.6,-0.005,49.97,6220.35,855.95,67.0,-0.066,0.0,2.36,0.0,0.001,0.001,0.029,12.47375
2022-09-05T05:39:36.3407,0.0,0.711,0.104,7207.47,1.23,233.6,233.1,232.8,0.001,49.97,6220.35,855.95,67.0,-0.102,0.0,2.37,0.0,0.001,0.001,0.03,12.47625
2022-09-05T05:44:11.3584,0.0,0.711,0.102,7207.48,1.24,232.1,234.5,233.1,-0.001,49.97,6220.35,855.95,67.0,-0.102,0.0,2.4,0.0,0.001,0.001,0.03,12.47875
2022-09-05T05:48:46.2698,0.0,0.711,0.206,7207.48,1.24,233.3,235.1,233.8,0.001,49.97,6220.35,855.95,66.0,-0.206,0.0,2.44,0.0,0.001,0.001,0.03,12.4825
2022-09-05T05:53:21.2138,0.0,0.711,0.175,7207.5,1.26,234.5,233.3,233.3,0.011,49.97,6220.35,855.95,66.0,-0.175,0.0,2.44,0.0,0.001,0.001,0.029,12.485
2022-09-05T05:57:56.0943,0.0,0.711,0.099,7207.51,1.27,234.1,232.6,233.8,-0.002,50.0,6220.35,855.95,66.0,-0.099,0.0,2.48,0.0,0.001,0.001,0.03,12.4875
2022-09-05T06:02:30.9518,0.0,0.711,0.098,7207.51,1.27,231.8,232.1,231.1,0.0,50.04,6220.35,855.95,66.0,-0.098,0.0,2.5,0.0,0.001,0.001,0.029,12.49
2022-09-05T06:07:05.839146,0.0,0.711,0.282,7207.52,1.28,230.6,232.8,231.6,-0.014,50.0,6220.35,855.95,66.0,-0.282,0.0,2.53,0.0,0.001,0.001,0.03,12.49125
2022-09-05T06:11:41.012,0.0,0.711,0.293,7207.55,1.31,232.3,235.8,234.3,0.01,49.97,6220.35,855.95,66.0,-0.293,0.0,2.57,0.0,0.001,0.001,0.03,12.495
2022-09-05T06:16:16.2197,0.0,0.711,0.169,7207.56,1.32,232.5,234.5,232.3,0.0,50.02,6220.35,855.95,66.0,-0.169,0.0,2.59,0.0,0.001,0.001,0.029,12.4975
2022-09-05T06:20:51.4623,0.0,0.711,0.156,7207.58,1.34,230.8,235.0,231.8,0.0,49.99,6220.35,855.95,66.0,-0.156,0.0,2.62,0.0,0.001,0.001,0.03,12.5
2022-09-05T06:25:26.7882,0.0,0.711,0.158,7207.59,1.35,232.5,235.3,233.3,-0.291,49.97,6220.35,855.95,66.0,-0.158,0.0,2.65,0.0,0.001,0.001,0.03,12.5025
2022-09-05T06:30:01.983642,0.0,0.711,0.248,7207.6,1.36,233.3,235.8,230.1,0.0,50.0,6220.35,855.95,65.0,-0.248,0.0,2.67,0.0,0.001,0.002,0.029,12.50625
2022-09-05T06:34:36.8207,0.0,0.711,0.158,7207.62,1.38,233.1,232.6,233.8,0.0,50.0,6220.35,855.95,65.0,-0.158,0.0,2.72,0.0,0.001,0.001,0.03,12.5075
2022-09-05T06:39:11.9374,0.007,0.711,0.154,7207.63,1.39,231.3,234.8,234.1,-0.006,50.0,6220.35,855.95,65.0,-0.147,0.0,2.74,0.0,0.001,0.001,0.03,12.51
2022-09-05T06:43:46.9518,0.018,1.703,0.218,7207.71,1.47,233.1,233.3,233.6,0.0,50.0,6220.35,855.95,65.0,-0.2,0.0,2.78,0.0,0.001,0.001,0.03,12.5125
2022-09-05T06:48:22.1515,0.041,1.703,1.361,7207.73,1.49,228.6,236.8,235.6,-0.002,50.0,6220.35,855.96,65.0,-1.32,0.0,2.84,0.0,0.002,0.001,0.03,12.515
2022-09-05T06:52:57.1844,0.039,1.703,0.156,7207.78,1.54,230.8,235.3,232.1,-0.004,49.99,6220.35,855.96,65.0,-0.117,0.0,2.92,0.0,0.001,0.001,0.029,12.51875
2022-09-05T06:57:32.2308,0.055,1.703,0.162,7207.79,1.55,233.8,237.5,234.8,-0.002,50.0,6220.35,855.96,65.0,-0.107,0.0,2.95,0.0,0.001,0.001,0.03,12.52125
2022-09-05T07:02:07.347022,0.064,1.703,0.153,7207.8,1.56,231.3,234.8,233.8,0.006,50.0,6220.35,855.96,65.0,-0.089,0.0,2.97,0.0,0.001,0.001,0.03,12.5225
2022-09-05T07:06:42.6996,0.085,1.703,0.239,7207.82,1.58,232.3,235.1,232.8,-0.001,49.97,6220.35,855.96,65.0,-0.154,0.0,2.98,0.0,0.001,0.001,0.03,12.525
2022-09-05T07:11:17.833,0.085,1.703,0.152,7207.83,1.59,232.5,236.8,233.8,-0.007,49.99,6220.35,855.96,64.0,-0.067,0.0,3.0,0.0,0.001,0.001,0.03,12.52875
2022-09-05T07:15:52.595,0.116,1.703,0.299,7207.85,1.61,233.6,237.5,232.8,-0.001,49.99,6220.35,855.96,64.0,-0.183,0.0,3.02,0.0,0.001,0.001,0.03,12.53125
2022-09-05T07:20:27.6276,0.129,1.703,0.258,7207.87,1.63,232.3,235.1,234.8,0.0,49.97,6220.35,855.96,64.0,-0.129,0.0,3.05,0.0,0.001,0.001,0.03,12.53375
2022-09-05T07:25:02.584927,0.137,1.703,0.174,7207.88,1.64,232.5,234.3,234.3,-0.016,50.0,6220.35,855.96,64.0,-0.037,0.0,3.05,0.0,0.001,0.001,0.03,12.53625
2022-09-05T07:29:37.9488,0.164,1.703,0.176,7207.9,1.66,233.3,234.0,233.1,0.002,50.0,6220.35,855.96,64.0,-0.012,0.0,3.05,0.0,0.001,0.001,0.03,12.53875
2022-09-05T07:34:13.1026,0.188,1.703,0.074,7207.91,1.67,235.5,230.3,235.1,-0.002,49.97,6220.35,856.0,64.0,0.114,0.0,3.07,0.0,0.001,0.001,0.03,12.54125
2022-09-05T07:38:48.0814,0.654,1.703,0.033,7207.92,1.68,234.3,234.8,234.1,0.003,49.99,6220.35,856.0,64.0,0.621,0.01,3.08,0.0,0.001,0.001,0.03,12.54375
2022-09-05T07:43:23.2076,0.89,1.703,0.014,7207.92,1.68,233.8,232.8,233.3,-0.001,49.97,6220.35,856.0,64.0,0.876,0.03,3.08,0.0,0.001,0.001,0.03,12.54625
2022-09-05T07:47:58.5925,1.193,1.703,0.0,7207.93,1.69,233.8,233.8,232.3,0.001,49.97,6220.35,856.0,64.0,1.193,0.09,3.08,0.0,0.001,0.001,0.03,12.54875
2022-09-05T07:52:33.293,1.395,1.703,0.0,7207.93,1.69,232.6,235.6,231.3,0.342,49.97,6220.37,856.0,65.0,1.395,0.19,3.08,0.0,0.001,0.001,0.029,12.5525
2022-09-05T07:57:08.568556,1.535,1.703,0.0,7207.93,1.69,233.6,233.6,232.3,0.42,50.0,6220.39,856.0,65.0,1.535,0.28,3.08,0.0,0.002,0.001,0.03,12.555
2022-09-05T08:01:43.4156,1.673,1.703,0.0,7207.93,1.69,232.0,234.6,231.6,0.476,50.02,6220.43,856.0,65.0,1.673,0.34,3.08,0.0,0.001,0.001,0.029,12.55625
2022-09-05T08:06:18.7032,1.827,1.703,0.0,7207.93,1.69,233.1,232.8,233.0,0.431,50.0,6220.47,856.0,66.0,1.827,0.5,3.08,0.0,0.001,0.001,0.03,12.55875
2022-09-05T08:10:53.7996,1.892,1.703,0.0,7207.93,1.69,235.8,234.6,235.0,0.544,49.97,6220.5,856.0,66.0,1.892,0.58,3.08,0.0,0.001,0.001,0.03,12.56125
2022-09-05T08:15:28.8176,2.123,1.703,0.0,7207.93,1.69,236.0,235.6,236.1,0.625,49.99,6220.56,856.0,66.0,2.123,0.74,3.08,0.0,0.001,0.001,0.03,12.56375
2022-09-05T08:20:03.744654,2.244,1.703,0.0,7207.93,1.69,237.3,234.8,232.8,0.668,50.0,6220.6,856.0,67.0,2.244,0.91,3.08,0.0,0.001,0.001,0.029,12.5675
2022-09-05T08:24:38.8729,2.371,1.703,0.0,7207.93,1.69,235.6,234.6,235.6,0.621,50.02,6220.64,856.0,67.0,2.374,1.02,3.08,0.0,0.001,0.001,0.03,12.57
2022-09-05T08:29:13.9121,2.414,1.703,0.0,7207.93,1.69,234.5,234.3,233.8,0.761,50.0,6220.7,856.0,68.0,2.414,1.24,3.08,0.0,0.001,0.001,0.03,12.5725
2022-09-05T08:33:49.0146,2.606,1.703,0.0,7207.93,1.69,238.6,233.5,235.3,0.827,50.0,6220.75,856.0,68.0,2.606,1.35,3.08,0.0,0.001,0.001,0.03,12.575
2022-09-05T08:38:24.0695,1.623,1.703,0.0,7207.93,1.69,234.3,234.0,232.8,0.474,50.0,6220.81,856.0,69.0,1.623,1.56,3.08,0.0,0.001,0.001,0.03,12.5775
2022-09-05T08:42:59.0812,2.826,1.703,0.0,7207.93,1.69,236.6,235.8,233.6,0.818,50.02,6220.87,856.0,69.0,2.826,1.76,3.08,0.0,0.001,0.001,0.03,12.58
2022-09-05T08:47:34.6668,3.008,1.703,0.0,7207.93,1.69,239.5,234.8,233.8,0.967,50.02,6220.95,856.0,70.0,3.008,1.9,3.08,0.0,0.001,0.001,0.03,12.5825
2022-09-05T08:52:09.937097,2.04,1.703,0.0,7207.93,1.69,236.8,236.1,233.6,0.629,50.0,6221.0,856.0,71.0,2.04,2.17,3.08,0.0,0.001,0.001,0.03,12.585
2022-09-05T08:56:44.9976,3.046,1.703,0.0,7207.93,1.69,239.8,238.3,234.6,0.989,50.02,6221.06,856.0,71.0,3.046,2.26,3.08,0.0,0.001,0.001,0.03,12.5875
2022-09-05T09:01:20.1939,3.25,1.703,0.0,7207.93,1.69,239.8,235.8,233.8,0.943,49.97,6221.12,856.0,72.0,3.25,2.47,3.08,0.0,0.001,0.001,0.03,12.59125
2022-09-05T09:05:55.3251,3.159,1.703,0.0,7207.93,1.69,239.6,238.3,235.8,0.988,49.99,6221.2,856.0,72.0,3.159,2.74,3.08,0.0,0.001,0.001,0.03,12.5925
2022-09-05T09:10:30.3563,3.41,1.703,0.0,7207.93,1.69,239.8,241.1,232.1,1.042,50.02,6221.27,856.0,73.0,3.41,2.89,3.08,0.0,0.001,0.001,0.029,12.595
2022-09-05T09:15:05.766310,3.307,1.703,0.0,7207.93,1.69,240.3,235.1,233.1,1.006,49.99,6221.35,856.0,74.0,3.307,3.2,3.08,0.0,0.002,0.002,0.029,12.5975
2022-09-05T09:19:40.6843,2.837,1.703,0.0,7207.93,1.69,240.3,239.6,235.6,0.746,50.0,6221.43,856.0,75.0,2.837,3.33,3.08,0.0,0.001,0.001,0.03,12.60125
2022-09-05T09:24:15.9722,3.047,1.703,0.0,7207.93,1.69,240.3,237.1,232.8,0.963,50.02,6221.49,856.0,75.0,3.047,3.59,3.08,0.0,0.001,0.001,0.029,12.60375
2022-09-05T09:28:50.9917,3.658,1.703,0.0,7207.93,1.69,243.1,236.3,230.5,1.139,50.02,6221.54,856.0,76.0,3.658,3.86,3.08,0.0,0.002,0.001,0.029,12.60625
2022-09-05T09:33:25.8722,2.848,1.703,0.0,7207.93,1.69,240.5,237.6,231.8,0.91,49.97,6221.62,856.0,76.0,2.848,4.01,3.08,0.0,0.001,0.001,0.029,12.6075
2022-09-05T09:38:00.931418,3.13,1.703,0.0,7207.93,1.69,241.8,235.8,236.8,0.892,50.02,6221.7,856.0,77.0,3.13,4.26,3.08,0.0,0.001,0.001,0.03,12.61125
2022-09-05T09:42:35.7747,4.295,1.703,0.0,7207.93,1.69,244.1,235.3,229.8,1.302,50.02,6221.77,856.0,78.0,4.295,4.38,3.08,0.0,0.002,0.001,0.029,12.61375
2022-09-05T09:47:10.7605,2.882,1.703,0.0,7207.93,1.69,236.8,234.3,233.5,0.916,50.02,6221.85,856.0,79.0,2.882,4.75,3.08,0.0,0.002,0.001,0.03,12.61625
2022-09-05T09:51:45.6655,3.294,1.703,0.0,7207.93,1.69,241.5,235.6,235.1,1.01,50.0,6221.93,856.0,79.0,3.294,5.01,3.08,0.0,0.001,0.001,0.03,12.61875
2022-09-05T09:56:20.8001,4.584,1.703,0.0,7207.93,1.69,239.8,233.6,233.6,1.469,50.02,6222.02,856.0,80.0,4.584,5.15,3.08,0.0,0.001,0.002,0.03,12.62125
2022-09-05T10:00:56.0212,3.872,1.703,0.0,7207.93,1.69,240.6,237.6,236.8,1.108,50.0,6222.12,856.0,81.0,3.848,5.52,3.08,0.0,0.002,0.001,0.03,12.62375
2022-09-05T10:05:30.9624,3.195,1.703,0.0,7207.93,1.69,232.1,228.6,224.1,0.915,49.99,6222.2,856.0,82.0,3.195,5.68,3.08,0.0,0.002,0.001,0.029,12.62625
2022-09-05T10:10:05.906120,3.653,1.703,0.0,7207.93,1.69,241.3,236.3,232.1,1.089,50.0,6222.27,856.0,83.0,3.653,5.99,3.08,0.0,0.002,0.002,0.029,12.62875
2022-09-05T10:14:41.0217,2.571,1.703,0.0,7207.93,1.69,236.8,235.8,230.5,0.719,50.02,6222.33,856.0,83.0,2.571,6.29,3.08,0.0,0.002,0.002,0.029,12.63125
2022-09-05T10:19:16.2008,2.293,1.703,0.0,7207.93,1.69,235.8,237.6,232.0,0.647,50.0,6222.37,856.0,83.0,2.48,6.41,3.08,0.0,0.001,0.002,0.029,12.635
2022-09-05T10:23:51.2333,3.035,1.703,0.0,7207.93,1.69,239.3,236.0,227.5,0.925,50.02,6222.47,856.0,84.0,3.035,6.62,3.08,0.0,0.001,0.001,0.029,12.6375
2022-09-05T10:28:26.2472,1.186,1.703,0.0,7207.93,1.69,231.1,236.1,231.8,0.243,50.0,6222.52,856.0,85.0,1.186,6.82,3.08,0.0,0.001,0.001,0.03,12.63875
2022-09-05T10:33:01.313040,3.236,1.703,0.0,7207.93,1.69,235.5,234.8,230.1,0.969,49.97,6222.58,856.0,85.0,3.236,7.04,3.08,0.0,0.002,0.001,0.03,12.64125
2022-09-05T10:37:36.5626,4.473,1.703,0.0,7207.93,1.69,246.1,242.3,235.1,1.256,50.0,6222.68,856.0,87.0,4.473,7.27,3.08,0.0,0.001,0.001,0.028,12.645
2022-09-05T10:42:11.5546,4.712,1.703,0.0,7207.93,1.69,243.1,235.6,231.1,1.459,50.0,6222.79,856.0,87.0,4.712,7.71,3.08,0.0,0.002,0.002,0.03,12.6475
2022-09-05T10:46:46.4502,4.701,1.703,0.0,7207.93,1.69,243.6,236.6,233.8,1.466,49.99,6222.91,856.0,88.0,4.701,7.92,3.08,0.0,0.001,0.002,0.029,12.65
2022-09-05T10:51:21.5755,1.918,1.703,0.0,7207.93,1.69,231.6,231.6,230.8,0.562,50.0,6222.97,856.0,89.0,1.918,8.32,3.08,0.0,0.002,0.002,0.029,12.6525
2022-09-05T10:55:56.4836,4.361,1.703,0.0,7207.93,1.69,239.8,238.1,233.3,1.317,50.0,6223.04,856.0,90.0,4.361,8.4,3.08,0.0,0.002,0.002,0.03,12.655
2022-09-05T11:00:31.1688,3.211,1.703,0.0,7207.93,1.69,241.8,240.8,236.1,0.954,50.0,6223.14,856.0,90.0,3.211,8.76,3.08,0.0,0.002,0.002,0.03,12.6575
2022-09-05T11:05:06.192498,4.896,1.703,0.0,7207.93,1.69,246.8,242.0,235.3,1.549,49.97,6223.25,856.0,91.0,4.896,9.14,3.08,0.0,0.001,0.002,0.03,12.66
2022-09-05T11:09:41.1298,5.346,1.703,0.0,7207.93,1.69,246.3,238.8,234.1,1.581,49.99,6223.37,856.0,93.0,5.346,9.38,3.08,0.0,0.002,0.002,0.03,12.6625
2022-09-05T11:14:16.31,5.275,1.703,0.449,7208.0,1.76,245.8,238.6,231.3,2.008,49.99,6223.56,856.0,94.0,4.826,9.81,3.08,0.0,0.002,0.001,0.029,12.665
2022-09-05T11:18:51.0857,5.223,5.224,5.223,7208.17,1.93,246.3,239.6,235.8,6.861,50.0,6223.85,856.0,95.0,0.0,9.97,3.08,0.0,0.001,0.001,0.03,12.66875
2022-09-05T11:23:25.9445,4.405,5.306,4.405,7208.55,2.31,245.5,241.3,234.1,5.86,50.0,6224.35,856.0,95.0,0.0,10.13,3.08,0.0,0.001,0.001,0.03,12.67125
2022-09-05T11:28:00.825441,4.383,5.306,4.383,7208.84,2.6,246.8,243.3,238.1,5.855,50.0,6224.74,856.0,95.0,0.0,10.13,3.08,0.0,0.002,0.002,0.03,12.6725
2022-09-05T11:32:35.7697,4.814,5.306,4.814,7209.19,2.95,245.8,243.8,235.6,6.259,50.0,6225.2,856.0,95.0,0.0,10.13,3.08,0.0,0.002,0.002,0.03,12.67625
2022-09-05T11:37:10.7081,5.227,5.306,5.227,7209.5,3.26,250.8,240.3,237.1,6.905,50.0,6225.6,856.0,95.0,0.0,10.13,3.08,0.0,0.002,0.001,0.031,12.67875
2022-09-05T11:41:45.8831,5.537,5.541,5.537,7209.92,3.68,249.6,239.5,234.6,7.27,49.97,6226.16,856.0,95.0,0.0,10.13,3.08,0.0,0.001,0.001,0.029,12.68125
2022-09-05T11:46:21.0459,5.76,5.772,5.76,7210.36,4.11,248.0,249.1,240.1,7.57,50.0,6226.72,856.0,95.0,0.0,10.13,3.08,0.0,0.002,0.002,0.031,12.68375
2022-09-05T11:50:56.0342,2.067,5.842,2.067,7210.65,4.4,234.5,235.8,232.6,2.504,50.0,6227.1,856.0,95.0,0.0,10.13,3.08,0.0,0.001,0.001,0.03,12.68625
2022-09-05T11:55:31.1688,2.56,5.842,2.56,7210.85,4.61,241.0,240.1,238.8,3.456,50.0,6227.35,856.0,95.0,0.0,10.13,3.08,0.0,0.001,0.002,0.031,12.69
2022-09-05T12:00:06.393181,2.2,5.842,2.2,7211.1,4.86,238.3,238.1,235.8,2.803,50.0,6227.68,856.0,95.0,0.0,10.13,3.08,0.0,0.002,0.001,0.03,12.6925
2022-09-05T12:04:41.3764,3.094,5.842,3.094,7211.28,5.04,242.1,237.8,236.6,4.039,49.97,6227.93,856.0,95.0,0.0,10.13,3.08,0.0,0.002,0.001,0.031,12.695
2022-09-05T12:09:16.086,3.402,5.842,3.402,7211.56,5.32,241.5,241.3,235.8,4.359,49.97,6228.29,856.0,95.0,0.0,10.13,3.08,0.0,0.002,0.001,0.03,12.6975
2022-09-05T12:13:51.1346,2.674,5.842,2.674,7211.86,5.62,238.8,238.8,234.3,3.423,50.02,6228.68,856.0,95.0,0.0,10.13,3.08,0.0,0.002,0.002,0.03,12.7
2022-09-05T12:18:26.1814,4.675,5.842,4.675,7212.09,5.85,245.8,239.8,236.1,6.265,50.0,6228.99,856.0,95.0,0.0,10.13,3.08,0.0,0.001,0.001,0.03,12.7025
2022-09-05T12:23:01.403281,2.227,5.842,2.227,7212.29,6.05,239.8,236.8,235.5,2.982,50.0,6229.25,856.0,95.0,0.0,10.13,3.08,0.0,0.001,0.001,0.03,12.705
2022-09-05T12:27:36.2912,2.284,5.842,2.284,7212.48,6.24,238.6,239.3,234.8,2.963,50.0,6229.5,856.0,95.0,0.0,10.13,3.08,0.0,0.001,0.001,0.03,12.7075
2022-09-05T12:32:11.6261,2.521,5.842,2.521,7212.67,6.43,236.8,236.1,232.6,3.329,49.97,6229.75,856.0,95.0,0.0,10.13,3.08,0.0,0.001,0.002,0.029,12.71125
2022-09-05T12:36:46.7551,2.383,5.842,2.383,7212.86,6.62,240.3,239.0,232.1,3.195,50.0,6230.0,856.0,95.0,0.0,10.13,3.08,0.0,0.001,0.002,0.03,12.71375
2022-09-05T12:41:21.6829,3.743,5.842,3.743,7213.07,6.83,244.1,240.6,235.8,4.94,49.97,6230.29,856.0,95.0,0.0,10.14,3.08,0.0,0.001,0.002,0.03,12.715
2022-09-05T12:45:57.3123,5.195,5.842,5.195,7213.37,7.13,249.1,243.1,238.8,7.002,50.0,6230.68,856.0,95.0,0.0,10.15,3.08,0.0,0.002,0.002,0.03,12.7175
2022-09-05T12:50:32.4058,4.734,5.842,4.734,7213.77,7.53,245.0,240.8,236.6,6.215,49.99,6231.22,856.0,95.0,0.0,10.15,3.08,0.0,0.001,0.002,0.03,12.72125
2022-09-05T12:55:07.698094,3.588,5.842,3.588,7214.09,7.85,237.8,237.8,233.6,4.736,50.0,6231.64,856.0,95.0,0.0,10.15,3.08,0.0,0.001,0.002,0.03,12.72375
2022-09-05T12:59:42.7176,4.398,5.842,4.398,7214.39,8.15,243.8,241.3,236.6,5.839,50.0,6232.04,856.0,95.0,0.0,10.15,3.08,0.0,0.001,0.002,0.03,12.72625
2022-09-05T13:04:17.6906,5.595,5.842,5.595,7214.8,8.55,247.3,241.0,238.3,7.43,49.99,6232.58,856.0,95.0,0.0,10.15,3.08,0.0,0.001,0.002,0.03,12.72875
2022-09-05T13:08:52.9234,5.451,5.842,5.451,7215.22,8.98,245.3,240.1,236.3,7.078,49.97,6233.12,856.0,95.0,0.0,10.15,3.08,0.0,0.001,0.001,0.03,12.7325
2022-09-05T13:13:27.8468,5.057,5.842,5.057,7215.61,9.37,248.5,241.8,237.3,6.707,49.97,6233.64,856.0,95.0,0.0,10.15,3.08,0.0,0.001,0.002,0.03,12.735
2022-09-05T13:18:02.730368,5.273,5.842,5.273,7216.01,9.77,247.1,239.8,236.1,6.939,49.99,6234.18,856.0,95.0,0.0,10.15,3.08,0.0,0.001,0.002,0.03,12.73625
2022-09-05T13:22:37.5427,5.139,5.842,5.139,7216.42,10.17,243.1,242.1,237.1,6.754,50.0,6234.7,856.0,95.0,0.0,10.15,3.08,0.0,0.001,0.001,0.03,12.73875
2022-09-05T13:27:12.5442,4.796,5.842,4.796,7216.81,10.57,241.3,242.1,236.3,6.214,50.0,6235.22,856.0,95.0,0.0,10.15,3.08,0.0,0.002,0.002,0.03,12.7425
2022-09-05T13:31:47.8788,4.363,5.842,4.363,7217.15,10.91,246.6,240.0,238.5,5.759,50.0,6235.66,856.0,95.0,0.0,10.15,3.08,0.0,0.001,0.002,0.03,12.745
2022-09-05T13:36:22.8115,4.109,5.842,4.109,7217.47,11.23,242.1,237.8,236.6,5.335,50.0,6236.08,856.0,95.0,0.0,10.16,3.08,0.0,0.001,0.002,0.03,12.7475
2022-09-05T13:40:58.0434,1.224,5.842,1.224,7217.64,11.4,231.1,235.8,231.8,1.561,49.99,6236.31,856.0,95.0,0.0,10.16,3.08,0.0,0.001,0.001,0.029,12.75
2022-09-05T13:45:32.9793,3.162,5.842,3.162,7217.75,11.51,242.1,239.8,234.3,4.295,50.0,6236.45,856.0,95.0,0.0,10.16,3.08,0.0,0.001,0.002,0.03,12.75375
2022-09-05T13:50:07.805493,5.703,5.842,5.703,7218.06,11.82,251.3,241.8,235.3,7.567,50.0,6236.87,856.0,95.0,0.0,10.16,3.08,0.0,0.001,0.002,0.03,12.75625
2022-09-05T13:54:42.9844,5.292,5.842,5.292,7218.48,12.24,249.1,241.6,239.1,7.026,50.0,6237.41,856.0,95.0,0.0,10.17,3.08,0.0,0.002,0.002,0.031,12.7575
2022-09-05T13:59:17.8965,5.031,5.842,5.031,7218.88,12.64,243.8,243.1,238.0,6.675,50.02,6237.95,856.0,95.0,0.0,10.17,3.08,0.0,0.001,0.002,0.03,12.76
2022-09-05T14:03:52.989,4.918,5.842,4.918,7219.25,13.01,243.0,240.3,235.3,6.453,49.97,6238.45,856.0,95.0,0.0,10.17,3.08,0.0,0.001,0.002,0.03,12.7625
2022-09-05T14:08:28.0266,4.806,5.842,4.806,7219.63,13.39,246.3,242.0,235.3,6.414,49.97,6238.93,856.0,95.0,0.0,10.17,3.08,0.0,0.001,0.002,0.03,12.76625
2022-09-05T14:13:03.333291,4.762,5.842,4.762,7220.0,13.75,248.3,238.3,234.6,6.304,50.0,6239.41,856.0,95.0,0.0,10.17,3.08,0.0,0.001,0.002,0.03,12.76875
2022-09-05T14:17:38.1408,4.698,5.842,4.698,7220.36,14.12,241.3,240.6,235.8,6.204,49.97,6239.89,856.0,95.0,0.0,10.17,3.08,0.0,0.001,0.002,0.03,12.7725
2022-09-05T14:22:13.3236,4.637,5.842,4.637,7220.71,14.47,245.3,242.8,234.3,6.013,50.0,6240.37,856.0,95.0,0.0,10.17,3.08,0.0,0.002,0.002,0.03,12.775
2022-09-05T14:26:48.3796,4.606,5.842,4.606,7221.06,14.82,248.1,241.3,234.8,6.072,49.97,6240.83,856.0,95.0,0.0,10.17,3.08,0.0,0.002,0.002,0.03,12.7775
2022-09-05T14:31:23.3246,4.574,5.842,4.574,7221.42,15.18,249.8,239.3,233.6,6.018,50.0,6241.29,856.0,95.0,0.0,10.17,3.08,0.0,0.001,0.002,0.03,12.77875
2022-09-05T14:35:58.5088,4.524,5.842,4.524,7221.77,15.53,245.1,242.1,237.3,5.965,50.0,6241.75,856.0,95.0,0.0,10.17,3.08,0.0,0.002,0.002,0.03,12.78125
2022-09-05T14:40:33.5997,4.266,5.842,4.266,7222.1,15.86,244.6,242.3,233.3,5.585,49.97,6242.2,856.0,95.0,0.0,10.17,3.08,0.0,0.002,0.002,0.029,12.78375
2022-09-05T14:45:08.438022,4.405,5.842,4.405,7222.44,16.2,244.0,240.3,238.8,5.803,49.97,6242.64,856.0,95.0,0.0,10.17,3.08,0.0,0.001,0.002,0.031,12.7875
2022-09-05T14:49:43.5014,4.366,5.842,4.366,7222.78,16.53,248.8,238.8,235.8,5.751,49.97,6243.08,856.0,95.0,0.0,10.17,3.08,0.0,0.002,0.002,0.03,12.79
2022-09-05T14:54:18.5727,4.309,5.842,4.309,7223.11,16.87,247.0,239.5,237.8,5.666,49.97,6243.5,856.0,95.0,0.0,10.17,3.08,0.0,0.001,0.002,0.03,12.79375
2022-09-05T14:58:53.6204,4.248,5.842,4.248,7223.43,17.19,242.3,240.8,235.8,5.507,50.0,6243.93,856.0,95.0,0.0,10.17,3.08,0.0,0.002,0.002,0.03,12.79625
2022-09-05T15:03:28.8923,4.181,5.842,4.181,7223.76,17.52,242.3,241.3,234.8,5.556,50.0,6244.37,856.0,95.0,0.0,10.17,3.08,0.0,0.002,0.002,0.03,12.79875
2022-09-05T15:08:04.191924,3.933,5.842,3.933,7224.07,17.83,246.8,238.8,234.0,5.258,50.0,6244.77,856.0,95.0,0.0,10.18,3.08,0.0,0.001,0.002,0.029,12.8
2022-09-05T15:12:38.9791,4.049,5.842,4.049,7224.37,18.13,247.1,239.3,235.8,5.341,49.97,6245.18,856.0,95.0,0.0,10.18,3.08,0.0,0.002,0.002,0.03,12.8025
2022-09-05T15:17:13.8502,3.985,5.842,3.985,7224.67,18.43,248.5,239.3,234.5,5.151,49.97,6245.58,856.0,95.0,0.0,10.19,3.08,0.0,0.002,0.002,0.03,12.805
2022-09-05T15:21:49.018,3.893,5.842,3.893,7224.98,18.73,243.3,239.6,236.1,5.13,49.97,6245.97,856.0,95.0,0.0,10.19,3.08,0.0,0.001,0.002,0.03,12.80875
2022-09-05T15:26:24.1205,3.784,5.842,3.784,7225.27,19.03,245.8,238.3,235.6,4.976,49.97,6246.35,856.0,95.0,0.0,10.19,3.08,0.0,0.001,0.002,0.03,12.8125
2022-09-05T15:30:59.1794,3.71,5.842,3.71,7225.55,19.31,248.8,236.1,236.0,4.903,50.0,6246.74,856.0,95.0,0.0,10.19,3.08,0.0,0.002,0.002,0.03,12.815
2022-09-05T15:35:34.3352,3.611,5.842,3.611,7225.83,19.59,247.8,235.3,237.6,4.703,49.99,6247.1,856.0,95.0,0.0,10.19,3.08,0.0,0.002,0.002,0.031,12.8175
2022-09-05T15:40:09.639506,3.543,5.842,3.543,7226.11,19.87,243.6,237.0,234.8,4.5,50.0,6247.45,856.0,95.0,0.0,10.19,3.08,0.0,0.002,0.002,0.03,12.82
2022-09-05T15:44:44.7523,3.429,5.842,3.429,7226.37,20.13,242.6,237.3,236.1,4.349,49.99,6247.79,856.0,95.0,0.0,10.19,3.08,0.0,0.002,0.002,0.03,12.82125
2022-09-05T15:49:19.821,3.32,5.842,3.32,7226.63,20.39,246.0,237.1,233.5,4.186,49.97,6248.12,856.0,95.0,0.0,10.19,3.08,0.0,0.002,0.002,0.03,12.82375
2022-09-05T15:53:54.8174,3.234,5.842,3.234,7226.88,20.64,243.3,235.3,236.8,4.004,49.99,6248.43,856.0,95.0,0.0,10.19,3.08,0.0,0.002,0.002,0.03,12.82625
2022-09-05T15:58:29.9949,3.142,5.842,3.142,7227.13,20.89,244.3,235.6,236.8,4.152,50.0,6248.74,856.0,95.0,0.0,10.19,3.08,0.0,0.001,0.002,0.03,12.83125
2022-09-05T16:03:04.997261,3.01,5.842,3.01,7227.36,21.12,245.8,235.0,237.1,3.96,50.02,6249.04,856.0,95.0,0.0,10.19,3.08,0.0,0.002,0.002,0.03,12.83375
2022-09-05T16:07:40.298,2.901,5.842,2.901,7227.59,21.35,244.3,234.1,233.0,1.983,49.97,6249.24,856.0,95.0,0.0,10.2,3.08,0.0,0.637,0.547,0.635,12.9475
2022-09-05T16:12:15.3481,2.804,5.842,2.804,7227.81,21.57,243.3,234.8,234.0,2.041,49.97,6249.41,856.0,95.0,0.0,10.2,3.09,0.0,0.501,0.438,0.569,13.05625
2022-09-05T16:16:50.396,2.652,5.842,2.652,7228.02,21.77,243.3,236.3,233.8,1.173,50.02,6249.52,856.0,95.0,0.0,10.2,3.09,0.0,0.744,0.68,0.811,13.2
2022-09-05T16:21:25.5642,2.555,5.842,2.555,7228.23,21.99,242.3,234.8,233.0,1.015,49.99,6249.58,856.0,95.0,0.0,10.2,3.09,0.0,0.771,0.708,0.832,13.37875
2022-09-05T16:26:00.536263,2.241,5.842,2.241,7228.41,22.17,241.8,235.8,231.6,0.619,49.97,6249.66,856.0,95.0,0.0,10.2,3.1,0.0,0.783,0.707,0.833,13.555
2022-09-05T16:30:35.8045,2.117,5.842,2.117,7228.58,22.34,241.5,233.5,229.6,0.221,50.0,6249.68,856.0,95.0,0.0,10.21,3.1,0.0,0.838,0.775,0.883,13.73875
2022-09-05T16:35:10.8003,2.182,5.842,2.182,7228.75,22.51,242.3,235.3,228.8,0.194,50.0,6249.7,856.0,95.0,0.0,10.22,3.1,0.0,0.855,0.812,0.887,13.9325
2022-09-05T16:39:45.9007,2.342,5.842,2.342,7228.92,22.68,242.6,236.8,230.1,3.062,50.0,6249.77,856.0,95.0,0.0,10.22,3.1,0.0,0.002,0.002,0.032,14.10125
2022-09-05T16:44:21.0277,2.247,5.842,2.247,7229.09,22.85,243.0,234.6,233.8,2.934,50.0,6250.0,856.0,95.0,0.0,10.22,3.1,0.0,0.002,0.001,0.03,14.10375
2022-09-05T16:48:56.0549,2.114,5.842,2.114,7229.26,23.02,242.6,233.1,232.6,2.352,49.97,6250.18,856.0,95.0,0.0,10.22,3.1,0.0,0.002,0.002,0.029,14.105
2022-09-05T16:53:31.2594,2.012,5.842,2.012,7229.42,23.18,242.3,234.6,230.8,2.115,49.97,6250.35,856.0,95.0,0.0,10.22,3.1,0.0,0.002,0.002,0.029,14.1075
2022-09-05T16:58:06.093158,1.876,5.842,1.876,7229.57,23.33,241.8,234.3,232.0,2.029,50.0,6250.52,856.0,95.0,0.0,10.22,3.1,0.0,0.002,0.002,0.029,14.11
2022-09-05T17:02:41.1995,1.782,5.842,1.782,7229.71,23.47,242.6,236.1,230.3,1.699,50.02,6250.66,856.0,95.0,0.0,10.22,3.1,0.0,0.002,0.002,0.029,14.11375
2022-09-05T17:07:16.2746,1.656,5.842,1.656,7229.84,23.6,244.0,237.6,232.1,1.609,50.0,6250.79,856.0,95.0,0.0,10.22,3.1,0.0,0.002,0.001,0.029,14.11625
2022-09-05T17:11:51.6737,1.529,5.842,1.529,7229.96,23.72,238.5,233.8,227.1,1.374,50.0,6250.89,856.0,95.0,0.0,10.22,3.1,0.0,0.001,0.002,0.028,14.11875
2022-09-05T17:16:26.8593,1.661,5.842,1.661,7230.08,23.84,240.8,232.8,228.3,1.546,50.0,6251.02,856.0,95.0,0.0,10.22,3.1,0.0,0.002,0.001,0.029,14.12125
2022-09-05T17:21:01.834289,1.583,5.842,1.583,7230.2,23.96,238.3,233.1,228.8,1.434,49.97,6251.12,856.0,95.0,0.0,10.22,3.1,0.0,0.002,0.001,0.029,14.12375
2022-09-05T17:25:37.1845,1.465,5.842,1.465,7230.32,24.08,239.8,234.8,226.1,1.287,49.95,6251.22,856.0,95.0,0.0,10.22,3.1,0.0,0.002,0.001,0.028,14.12625
2022-09-05T17:30:12.4938,1.321,5.842,1.321,7230.43,24.18,240.0,236.1,233.3,1.104,49.97,6251.31,856.0,95.0,0.0,10.22,3.1,0.0,0.002,0.002,0.03,14.12875
2022-09-05T17:34:47.4426,1.235,5.842,1.235,7230.52,24.28,240.6,235.1,232.1,1.591,49.97,6251.41,856.0,95.0,0.0,10.22,3.1,0.0,0.001,0.001,0.029,14.13
2022-09-05T17:39:22.4536,0.985,5.842,0.985,7230.58,24.34,235.3,232.8,232.3,1.285,50.0,6251.5,856.0,95.0,0.0,10.22,3.1,0.0,0.001,0.001,0.029,14.1325
2022-09-05T17:43:57.5725,1.061,5.842,1.061,7230.66,24.42,240.1,235.8,235.3,1.381,49.97,6251.6,856.0,95.0,0.0,10.22,3.1,0.0,0.001,0.001,0.03,14.13625
2022-09-05T17:48:32.5866,0.95,5.842,0.95,7230.74,24.5,235.8,237.1,233.6,1.149,49.99,6251.7,856.0,95.0,0.0,10.22,3.1,0.0,0.001,0.001,0.03,14.14
2022-09-05T17:53:07.614799,0.834,5.842,0.834,7230.81,24.57,236.8,236.3,234.3,1.069,49.97,6251.79,856.0,95.0,0.0,10.22,3.1,0.0,0.001,0.001,0.03,14.1425
2022-09-05T17:57:42.8351,0.746,5.842,0.746,7230.87,24.63,235.8,234.8,234.8,0.827,50.0,6251.85,856.0,95.0,0.0,10.22,3.1,0.0,0.001,0.001,0.03,14.145
2022-09-05T18:02:18.0308,0.622,5.842,0.622,7230.92,24.68,233.8,232.3,231.6,0.635,50.04,6251.91,856.0,95.0,0.0,10.22,3.1,0.0,0.001,0.001,0.029,14.1475
2022-09-05T18:06:53.3355,0.369,5.842,0.369,7230.95,24.71,233.3,231.8,228.8,0.274,50.02,6251.95,856.0,95.0,0.0,10.23,3.1,0.0,0.001,0.001,0.029,14.14875
2022-09-05T18:11:28.453,0.484,5.842,0.484,7230.99,24.75,233.1,233.1,232.1,0.451,50.02,6251.97,856.0,95.0,0.0,10.24,3.1,0.0,0.001,0.001,0.029,14.15125
2022-09-05T18:16:03.692288,0.436,5.842,0.436,7231.02,24.78,234.3,232.6,232.8,0.391,50.02,6252.0,856.0,95.0,0.0,10.24,3.1,0.0,0.001,0.001,0.03,14.15375
2022-09-05T18:20:38.8949,0.357,5.842,0.357,7231.05,24.81,234.5,233.3,230.3,0.079,49.97,6252.02,856.0,95.0,0.0,10.24,3.11,0.0,0.002,0.001,0.029,14.15625
2022-09-05T18:25:14.0426,0.331,5.842,0.701,7231.1,24.86,231.3,234.0,232.3,0.006,49.97,6252.02,856.0,95.0,-0.37,10.24,3.12,0.0,0.002,0.001,0.029,14.16125
2022-09-05T18:29:49.0404,0.271,5.842,0.663,7231.17,24.93,231.6,233.6,230.8,0.048,49.97,6252.02,856.0,95.0,-0.392,10.24,3.18,0.0,0.002,0.001,0.029,14.16375
2022-09-05T18:34:24.2126,0.2,5.842,0.684,7231.22,24.98,229.3,233.6,230.8,0.088,50.0,6252.02,856.0,95.0,-0.484,10.24,3.2,0.0,0.002,0.001,0.029,14.165
2022-09-05T18:38:59.1787,0.175,5.842,0.685,7231.27,25.03,229.0,235.5,228.8,0.094,49.97,6252.02,856.0,95.0,-0.51,10.24,3.27,0.0,0.001,0.001,0.029,14.1675
2022-09-05T18:43:34.108,0.155,5.842,0.712,7231.32,25.08,230.6,234.8,231.5,0.005,49.95,6252.02,856.0,94.0,-0.557,10.24,3.29,0.0,0.002,0.001,0.029,14.17
2022-09-05T18:48:09.354080,0.145,5.842,0.716,7231.37,25.13,230.3,234.8,232.3,-0.006,49.95,6252.02,856.0,94.0,-0.571,10.24,3.36,0.0,0.001,0.001,0.029,14.1725
2022-09-05T18:52:44.5588,0.117,5.842,0.708,7231.43,25.19,227.8,235.3,232.1,-0.029,49.99,6252.02,856.0,94.0,-0.591,10.24,3.43,0.0,0.002,0.001,0.029,14.175
2022-09-05T18:57:19.6938,0.097,5.842,0.734,7231.48,25.24,229.6,234.8,232.6,0.061,49.97,6252.02,856.0,93.0,-0.637,10.24,3.47,0.0,0.002,0.001,0.029,14.1775
2022-09-05T19:01:54.8977,0.078,5.842,0.825,7231.54,25.3,230.1,236.6,233.6,0.018,50.02,6252.02,856.0,93.0,-0.747,10.24,3.55,0.0,0.002,0.001,0.03,14.18125
2022-09-05T19:06:14.0258,0.058,5.842,0.745,7231.59,25.35,231.3,235.1,231.0,-0.004,50.02,6252.02,856.0,93.0,-0.687,10.24,3.6,0.0,0.001,0.001,0.03,14.18375