File: docs/data/huawei/huawei_sun2000_20220901010709.csv
local_time,total_input_power,load_power,grid_power,total_battery_power,input_power,day_active_power_peak,active_power,accumulated_yield_energy,daily_yield_energy,grid_voltage_a_phase,b_phase_voltage,c_phase_voltage,power_meter_active_power,grid_frequency,grid_exported_energy,grid_accumulated_energy,storage_state_of_capacity,storage_charge_discharge_power,storage_current_day_charge_capacity,storage_current_day_discharge_capacity,system_time,backup_switch_to_off_grid,a_phase_active_power,b_phase_active_power,c_phase_active_power,forward_energy
2022-09-01T01:08:22.9227,0.0,0.08,0.002,-0.078,0.0,0.275,0.074,7075.0,0.14,233.3,235.3,236.3,-1.0,49.95,6081.68,855.04,82.0,-74.0,0.0,0.37,1661994497.0,0.0,1.0,1.0,30.0,5.85375
2022-09-01T01:12:51.074,0.0,0.215,0.0,-0.215,0.0,0.275,0.211,7075.01,0.15,233.8,235.3,236.3,0.0,49.97,6081.68,855.04,82.0,-211.0,0.0,0.38,1661994766.0,0.0,1.0,1.0,30.0,5.85625
2022-09-01T01:17:20.5746,0.0,0.119,-0.002,-0.121,0.0,0.275,0.122,7075.02,0.16,233.8,237.1,236.5,-2.0,49.97,6081.68,855.04,82.0,-122.0,0.0,0.42,1661995035.0,0.0,1.0,1.0,31.0,5.85875
2022-09-01T01:21:52.9935,0.0,0.126,0.001,-0.125,0.0,0.275,0.121,7075.03,0.17,233.1,235.3,234.8,-1.0,50.0,6081.68,855.04,81.0,-123.0,0.0,0.45,1661995309.0,0.0,1.0,1.0,30.0,5.86125
2022-09-01T01:26:19.8401,0.0,0.12,0.0,-0.12,0.0,0.275,0.123,7075.04,0.18,230.8,232.8,231.8,0.0,50.0,6081.68,855.04,81.0,-123.0,0.0,0.47,1661995575.0,0.0,1.0,1.0,29.0,5.86375
2022-09-01T01:30:50.7945,0.0,0.213,-0.001,-0.214,0.0,0.378,0.213,7075.06,0.2,230.8,233.8,232.3,1.0,49.99,6081.68,855.04,81.0,-211.0,0.0,0.5,1661995845.0,0.0,1.0,1.0,29.0,5.86625
2022-09-01T01:35:25.6669,0.0,0.069,-0.002,-0.071,,,,,,,,,,,,,,,,,,,1.0,1.0,29.0,5.8675
2022-09-01T01:39:50.8122,0.0,0.07,0.001,-0.069,0.0,0.378,0.07,7075.07,0.21,233.8,235.8,233.6,-1.0,50.0,6081.68,855.04,81.0,-70.0,0.0,0.54,1661996386.0,0.0,1.0,1.0,30.0,5.87
2022-09-01T01:44:20.3946,0.0,0.113,0.0,-0.113,0.0,0.378,0.113,7075.08,0.22,234.6,236.6,234.6,0.0,50.0,6081.68,855.04,81.0,-113.0,0.0,0.56,1661996655.0,0.0,1.0,1.0,30.0,5.8725
2022-09-01T01:48:51.0153,0.0,0.211,0.0,-0.211,0.0,0.378,0.205,7075.09,0.23,232.1,232.6,232.6,0.0,50.0,6081.68,855.04,81.0,-205.0,0.0,0.59,1661996925.0,0.0,1.0,1.0,30.0,5.87625
2022-09-01T01:53:20.7609,0.0,0.11,0.001,-0.109,0.0,0.378,0.11,7075.1,0.24,231.8,233.3,231.8,-1.0,50.02,6081.68,855.04,81.0,-110.0,0.0,0.63,1661997196.0,0.0,1.0,1.0,29.0,5.87875
2022-09-01T01:57:50.0965,0.0,0.113,0.001,-0.112,0.0,0.378,0.112,7075.11,0.25,231.1,233.6,232.5,-1.0,50.0,6081.68,855.04,81.0,-107.0,0.0,0.64,1661997463.0,0.0,1.0,1.0,30.0,5.88125
2022-09-01T02:02:19.1974,0.0,0.107,0.0,-0.107,0.0,0.378,0.108,7075.12,0.26,232.1,232.8,231.8,-1.0,49.97,6081.68,855.04,81.0,-108.0,0.0,0.66,1661997735.0,0.0,1.0,1.0,29.0,5.88375
2022-09-01T02:06:48.5544,0.0,0.163,0.0,-0.163,0.0,0.378,0.159,7075.13,0.27,233.3,235.6,234.5,0.0,49.97,6081.68,855.04,81.0,-159.0,0.0,0.69,1661998004.0,0.0,1.0,1.0,30.0,5.88625
2022-09-01T02:11:19.2197,0.0,0.263,0.0,-0.263,0.0,0.378,0.256,7075.15,0.29,232.3,233.3,231.1,-1.0,49.99,6081.68,855.04,81.0,-253.0,0.0,0.71,1661998274.0,0.0,1.0,1.0,30.0,5.88875
2022-09-01T02:15:49.3665,0.0,0.256,0.002,-0.254,0.0,0.378,0.258,7075.17,0.31,231.6,233.1,231.3,-2.0,50.0,6081.68,855.04,81.0,-258.0,0.0,0.76,1661998543.0,0.0,1.0,1.0,30.0,5.89125
2022-09-01T02:20:18.5998,0.0,0.26,0.001,-0.259,0.0,0.378,0.255,7075.19,0.33,232.1,234.8,231.5,2.0,50.0,6081.68,855.04,80.0,-255.0,0.0,0.79,1661998812.0,0.0,1.0,1.0,30.0,5.89375
2022-09-01T02:24:49.9146,0.0,0.352,-0.001,-0.353,0.0,0.378,0.348,7075.21,0.35,232.3,233.6,230.8,0.0,50.0,6081.68,855.04,80.0,-349.0,0.0,0.82,1661999084.0,0.0,1.0,1.0,30.0,5.895
2022-09-01T02:29:18.6508,0.0,0.255,0.0,-0.255,0.0,0.378,0.254,7075.24,0.38,232.1,231.3,230.6,-3.0,50.0,6081.68,855.04,80.0,-254.0,0.0,0.85,1661999353.0,0.0,1.0,1.0,29.0,5.8975
2022-09-01T02:33:49.3735,0.0,0.261,0.0,-0.261,0.0,0.378,0.262,7075.25,0.39,234.5,235.6,235.6,1.0,49.97,6081.68,855.04,80.0,-261.0,0.0,0.9,1661999624.0,0.0,1.0,1.0,30.0,5.90125
2022-09-01T02:38:17.679,0.0,0.063,0.002,-0.061,0.0,0.378,0.065,7075.27,0.41,232.8,234.6,231.5,-1.0,50.0,6081.68,855.04,80.0,-65.0,0.0,0.94,1661999893.0,0.0,1.0,1.0,29.0,5.90375
2022-09-01T02:42:47.1731,0.0,0.166,0.0,-0.166,0.0,0.378,0.16,7075.28,0.42,234.3,234.8,233.6,0.0,50.0,6081.68,855.04,80.0,-164.0,0.0,0.95,1662000162.0,0.0,1.0,1.0,30.0,5.90625
2022-09-01T02:47:20.1595,0.0,0.199,0.002,-0.197,0.0,0.378,0.123,7075.29,0.43,232.6,235.3,232.3,-2.0,49.99,6081.68,855.04,80.0,-124.0,0.0,0.99,1662000435.0,0.0,1.0,1.0,30.0,5.90875
2022-09-01T02:51:47.8439,0.0,0.129,-0.003,-0.132,0.0,0.378,0.136,7075.3,0.44,232.1,233.5,231.8,-2.0,50.0,6081.68,855.04,80.0,-132.0,0.0,1.0,1662000702.0,0.0,1.0,1.0,30.0,5.91125
2022-09-01T02:56:18.5112,0.0,0.13,0.0,-0.13,0.0,0.378,0.127,7075.31,0.45,231.8,233.8,232.3,1.0,50.0,6081.68,855.04,80.0,-127.0,0.0,1.04,1662000972.0,0.0,1.0,1.0,29.0,5.91375
2022-09-01T03:00:49.8896,0.0,0.236,-0.001,-0.237,0.0,0.378,0.229,7075.32,0.46,231.3,233.8,231.0,0.0,49.97,6081.68,855.04,80.0,-226.0,0.0,1.04,1662001243.0,0.0,1.0,1.0,29.0,5.91625
2022-09-01T03:05:19.3289,0.0,0.217,0.001,-0.216,0.0,0.378,0.124,7075.34,0.48,231.1,233.3,231.1,2.0,49.97,6081.68,855.04,80.0,-124.0,0.0,1.08,1662001512.0,0.0,1.0,1.0,29.0,5.9175
2022-09-01T03:09:50.8746,0.0,0.128,0.0,-0.128,0.0,0.378,0.127,7075.35,0.49,231.8,234.5,232.6,2.0,49.97,6081.68,855.04,79.0,-126.0,0.0,1.11,1662001786.0,0.0,1.0,1.0,30.0,5.92
2022-09-01T03:14:18.4135,0.0,0.127,0.001,-0.126,0.0,0.378,0.122,7075.36,0.5,231.3,234.8,233.3,0.0,49.97,6081.68,855.04,79.0,-122.0,0.0,1.13,1662002053.0,0.0,1.0,1.0,30.0,5.92375
2022-09-01T03:18:46.8686,0.0,0.124,-0.001,-0.125,0.0,0.378,0.228,7075.37,0.51,231.3,233.3,232.1,-4.0,50.0,6081.68,855.04,79.0,-228.0,0.0,1.16,1662002322.0,0.0,1.0,1.0,29.0,5.92625
2022-09-01T03:23:17.826,0.0,0.208,0.0,-0.208,0.0,0.378,0.21,7075.38,0.52,231.0,233.8,231.8,0.0,50.0,6081.68,855.04,79.0,-211.0,0.0,1.18,1662002591.0,0.0,1.0,1.0,30.0,5.92875
2022-09-01T03:27:47.5208,0.0,0.121,0.001,-0.12,0.0,0.378,0.118,7075.39,0.53,233.1,235.3,233.0,0.0,50.0,6081.68,855.04,79.0,-118.0,0.0,1.22,1662002863.0,0.0,1.0,1.0,30.0,5.93125
2022-09-01T03:32:19.6866,0.0,0.119,0.0,-0.119,0.0,0.378,0.114,7075.4,0.54,233.3,234.8,232.8,-2.0,50.0,6081.68,855.04,79.0,-118.0,0.0,1.23,1662003133.0,0.0,1.0,1.0,29.0,5.9325
2022-09-01T03:36:48.5624,0.0,0.114,0.0,-0.114,0.0,0.378,0.117,7075.41,0.55,231.8,235.8,233.1,2.0,49.99,6081.68,855.04,79.0,-117.0,0.0,1.27,1662003402.0,0.0,1.0,1.0,30.0,5.935
2022-09-01T03:41:19.9238,0.0,0.153,0.0,-0.153,0.0,0.378,0.152,7075.42,0.56,233.3,235.6,234.6,0.0,50.0,6081.68,855.04,79.0,-152.0,0.0,1.28,1662003674.0,0.0,1.0,1.0,30.0,5.9375
2022-09-01T03:45:49.0887,0.0,0.064,0.0,-0.064,0.0,0.378,0.064,7075.43,0.57,233.5,235.8,230.8,-1.0,50.0,6081.68,855.04,79.0,-63.0,0.0,1.32,1662003942.0,0.0,1.0,1.0,29.0,5.94
2022-09-01T03:50:19.2578,0.0,0.062,0.002,-0.06,0.0,0.378,0.06,7075.44,0.58,233.3,235.1,230.8,0.0,50.0,6081.68,855.04,79.0,-60.0,0.0,1.34,1662004212.0,0.0,1.0,1.0,30.0,5.9425
2022-09-01T03:54:47.7052,0.0,0.064,0.001,-0.063,0.0,0.378,0.064,7075.44,0.58,232.3,235.1,230.3,-2.0,49.99,6081.68,855.04,79.0,-64.0,0.0,1.35,1662004482.0,0.0,1.0,2.0,29.0,5.94375
2022-09-01T03:59:19.2269,0.0,0.158,-0.001,-0.159,0.0,0.378,0.154,7075.45,0.59,232.1,235.8,232.3,-1.0,49.97,6081.68,855.04,79.0,-153.0,0.0,1.37,1662004754.0,0.0,1.0,1.0,30.0,5.94625
2022-09-01T04:03:48.7536,0.0,0.06,0.0,-0.06,0.0,0.378,0.061,7075.46,0.6,233.1,234.8,231.1,0.0,49.95,6081.68,855.04,79.0,-61.0,0.0,1.39,1662005024.0,0.0,1.0,1.0,29.0,5.94875
2022-09-01T04:08:20.9173,0.0,0.55,0.0,-0.55,0.0,0.564,0.56,7075.49,0.63,232.8,233.6,231.6,-2.0,49.97,6081.68,855.04,78.0,-560.0,0.0,1.44,1662005294.0,0.0,1.0,1.0,29.0,5.95125
2022-09-01T04:12:50.8101,0.0,0.569,-0.002,-0.571,0.0,0.578,0.566,7075.54,0.67,231.3,233.8,233.3,-4.0,49.95,6081.68,855.04,78.0,-566.0,0.0,1.47,1662005565.0,0.0,1.0,1.0,30.0,5.955
2022-09-01T04:17:21.8556,0.0,0.661,-0.001,-0.662,0.0,0.677,0.659,7075.58,0.72,231.1,234.5,233.3,0.0,49.97,6081.68,855.04,78.0,-661.0,0.0,1.55,1662005836.0,0.0,1.0,1.0,30.0,5.9575
2022-09-01T04:21:50.3751,0.0,0.572,0.0,-0.572,0.0,0.677,0.566,7075.63,0.77,231.3,234.8,232.8,-2.0,49.97,6081.68,855.04,78.0,-565.0,0.0,1.63,1662006105.0,0.0,1.0,1.0,30.0,5.96
2022-09-01T04:26:20.857,0.0,0.579,0.007,-0.572,0.0,0.677,0.574,7075.67,0.81,231.8,233.3,233.8,6.0,50.0,6081.68,855.04,78.0,-574.0,0.0,1.67,1662006375.0,0.0,1.0,1.0,30.0,5.9625
2022-09-01T04:30:49.9083,0.0,0.576,0.005,-0.571,0.0,0.677,0.569,7075.71,0.85,231.8,232.0,234.0,3.0,49.99,6081.68,855.04,78.0,-569.0,0.0,1.74,1662006644.0,0.0,1.0,1.0,30.0,5.965
2022-09-01T04:35:19.9099,0.0,0.664,0.003,-0.661,0.0,0.677,0.658,7075.76,0.9,232.1,234.3,231.3,-3.0,50.0,6081.68,855.04,77.0,-658.0,0.0,1.82,1662006914.0,0.0,1.0,1.0,29.0,5.9675
2022-09-01T04:39:51.5902,0.0,0.522,0.002,-0.52,0.0,0.677,0.519,7075.81,0.95,230.1,234.8,232.6,-3.0,49.99,6081.68,855.04,77.0,-519.0,0.0,1.85,1662007186.0,0.0,1.0,1.0,30.0,5.96875
2022-09-01T04:44:20.5144,0.0,0.524,0.003,-0.521,0.0,0.677,0.515,7075.85,0.99,231.3,234.3,232.6,-3.0,50.0,6081.68,855.04,77.0,-521.0,0.0,1.92,1662007455.0,0.0,1.0,2.0,29.0,5.97125
2022-09-01T04:48:50.3571,0.0,0.527,0.005,-0.522,0.0,0.677,0.522,7075.88,1.02,231.6,234.0,233.1,-2.0,50.0,6081.68,855.04,77.0,-522.0,0.0,1.96,1662007724.0,0.0,1.0,1.0,30.0,5.97375
2022-09-01T04:53:21.7277,0.0,0.624,-0.002,-0.626,0.0,0.677,0.618,7075.93,1.07,230.3,234.5,233.1,0.0,49.99,6081.68,855.04,77.0,-613.0,0.0,2.03,1662007996.0,0.0,1.0,1.0,29.0,5.9775
2022-09-01T04:57:52.8289,0.0,0.605,0.001,-0.604,0.0,0.677,0.522,7075.97,1.11,230.6,234.3,233.5,0.0,50.0,6081.68,855.04,76.0,-515.0,0.0,2.08,1662008265.0,0.0,1.0,1.0,30.0,5.98125
2022-09-01T05:02:24.3513,0.0,0.518,-0.002,-0.52,0.0,0.677,0.518,7076.01,1.15,232.1,233.8,232.1,215.0,50.0,6081.68,855.04,76.0,-396.0,0.0,2.14,1662008538.0,0.0,1.0,1.0,30.0,5.9825
2022-09-01T05:06:52.7961,0.0,0.062,0.002,-0.06,0.0,0.677,0.063,7076.01,1.15,233.0,233.3,232.8,0.0,49.99,6081.68,855.04,76.0,-63.0,0.0,2.19,1662008806.0,0.0,1.0,1.0,29.0,5.985
2022-09-01T05:11:23.8922,0.0,0.197,0.048,-0.149,0.0,0.677,0.219,7076.02,1.16,233.3,234.0,233.3,0.0,50.0,6081.68,855.04,76.0,-216.0,0.0,2.21,1662009078.0,0.0,1.0,1.0,30.0,5.9875
2022-09-01T05:15:51.3286,0.0,0.204,0.0,-0.204,0.0,0.677,0.198,7076.04,1.18,233.5,235.1,233.8,0.0,50.0,6081.68,855.04,76.0,-199.0,0.0,2.25,1662009345.0,0.0,1.0,1.0,30.0,5.99
2022-09-01T05:20:18.4424,0.0,0.113,-0.001,-0.114,0.0,0.677,0.111,7076.05,1.19,232.8,233.8,233.0,0.0,49.97,6081.68,855.04,76.0,-111.0,0.0,2.25,1662009614.0,0.0,1.0,1.0,29.0,5.9925
2022-09-01T05:24:52.4658,0.0,0.115,0.001,-0.114,0.0,0.677,0.114,7076.06,1.2,231.3,233.0,232.6,2.0,49.95,6081.68,855.04,76.0,-111.0,0.0,2.29,1662009886.0,0.0,1.0,1.0,30.0,5.995
2022-09-01T05:29:21.8239,0.0,0.109,-0.001,-0.11,0.0,0.677,0.114,7076.06,1.2,232.1,232.3,232.8,-32.0,49.97,6081.68,855.04,76.0,-158.0,0.0,2.3,1662010156.0,0.0,1.0,1.0,30.0,5.99625
2022-09-01T05:33:50.6243,0.0,0.199,-0.001,-0.2,0.0,0.677,0.2,7076.08,1.22,231.3,232.6,233.3,0.0,49.99,6081.68,855.04,76.0,-200.0,0.0,2.34,1662010425.0,0.0,1.0,1.0,30.0,6.0
2022-09-01T05:38:20.7957,0.0,0.06,0.0,-0.06,0.0,0.677,0.06,7076.09,1.23,235.1,235.6,234.3,0.0,49.97,6081.68,855.04,76.0,-61.0,0.0,2.37,1662010694.0,0.0,1.0,1.0,30.0,6.0025
2022-09-01T05:42:46.9936,0.0,0.063,0.001,-0.062,0.0,0.677,0.061,7076.09,1.23,231.3,233.6,231.6,-2.0,49.97,6081.68,855.04,76.0,-61.0,0.0,2.37,1662010961.0,0.0,1.0,1.0,30.0,6.00625
2022-09-01T05:47:19.3303,0.0,0.058,0.0,-0.058,0.0,0.677,0.062,7076.09,1.23,230.8,233.3,231.8,-1.0,50.02,6081.68,855.04,76.0,-64.0,0.0,2.4,1662011234.0,0.0,1.0,1.0,29.0,6.00875
2022-09-01T05:51:50.2059,0.0,0.153,0.0,-0.153,0.0,0.677,0.154,7076.11,1.25,231.1,232.3,231.5,1.0,50.0,6081.68,855.04,75.0,-153.0,0.0,2.42,1662011505.0,0.0,1.0,1.0,29.0,6.01
2022-09-01T05:56:17.2366,0.0,0.062,0.001,-0.061,0.0,0.677,0.061,7076.11,1.25,231.8,237.3,234.6,1.0,50.0,6081.68,855.04,75.0,-62.0,0.0,2.45,1662011772.0,0.0,1.0,1.0,30.0,6.0125
2022-09-01T06:00:49.49,0.0,0.063,0.0,-0.063,0.0,0.677,0.06,7076.12,1.26,233.1,235.8,234.0,-1.0,50.02,6081.68,855.04,75.0,-61.0,0.0,2.47,1662012044.0,0.0,1.0,1.0,30.0,6.015
2022-09-01T06:05:16.3972,0.0,0.09,0.002,-0.088,0.0,0.677,0.093,7076.12,1.26,232.3,235.6,233.1,0.0,50.02,6081.68,855.04,75.0,-93.0,0.0,2.49,1662012311.0,0.0,1.0,1.0,30.0,6.0175
2022-09-01T06:09:46.7325,0.0,0.206,0.002,-0.204,0.0,0.677,0.202,7076.14,1.28,232.1,234.0,233.1,0.0,49.99,6081.68,855.04,75.0,-200.0,0.0,2.5,1662012581.0,0.0,1.0,2.0,30.0,6.02
2022-09-01T06:14:17.6172,0.0,0.111,0.0,-0.111,0.0,0.677,0.112,7076.15,1.29,234.3,234.5,233.1,0.0,49.97,6081.68,855.04,75.0,-111.0,0.0,2.54,1662012851.0,0.0,1.0,1.0,30.0,6.0225
2022-09-01T06:18:45.8776,0.0,0.638,-0.991,-1.629,0.0,1.68,0.111,7076.22,1.36,231.8,233.6,232.8,-17.0,50.02,6081.68,855.05,75.0,-132.0,0.0,2.6,1662013119.0,0.0,1.0,1.0,30.0,6.025
2022-09-01T06:23:16.4675,0.0,0.129,0.0,-0.129,0.0,1.68,0.134,7076.23,1.37,232.1,235.3,233.8,0.0,49.99,6081.68,855.05,75.0,-134.0,0.0,2.65,1662013391.0,0.0,1.0,1.0,30.0,6.02875
2022-09-01T06:27:47.1336,0.0,0.229,0.0,-0.229,0.0,1.68,0.228,7076.24,1.38,231.5,233.1,231.8,-14.0,49.97,6081.68,855.05,75.0,0.0,0.0,2.68,1662013662.0,0.0,1.0,1.0,29.0,6.03125
2022-09-01T06:32:16.3204,0.0,0.133,0.0,-0.133,0.0,1.68,0.128,7076.26,1.4,231.3,234.5,230.8,-2.0,50.0,6081.68,855.05,74.0,-133.0,0.0,2.71,1662013930.0,0.0,1.0,1.0,29.0,6.03375
2022-09-01T06:36:47.4413,0.005,0.131,0.001,-0.125,0.006,1.68,0.128,7076.27,1.41,232.3,234.3,231.8,-1.0,49.99,6081.68,855.05,74.0,-125.0,0.0,2.73,1662014202.0,0.0,1.0,1.0,29.0,6.035
2022-09-01T06:41:14.5045,0.016,0.12,-0.003,-0.107,0.016,1.68,0.121,7076.28,1.42,232.6,233.6,232.0,-3.0,49.97,6081.68,855.05,74.0,-104.0,0.0,2.75,1662014468.0,0.0,1.0,1.0,29.0,6.0375
2022-09-01T06:45:44.8844,0.052,0.203,0.001,-0.15,0.039,1.68,0.19,7076.29,1.43,229.8,235.3,231.8,-1.0,49.97,6081.68,855.05,74.0,-149.0,0.0,2.78,1662014738.0,0.0,1.0,1.0,29.0,6.04
2022-09-01T06:50:16.9935,0.067,0.086,0.003,-0.016,0.043,1.68,0.062,7076.3,1.44,230.8,232.3,232.3,-4.0,50.0,6081.68,855.05,74.0,-18.0,0.0,2.79,1662015011.0,0.0,1.0,1.0,29.0,6.0425
2022-09-01T06:54:45.0181,0.119,0.065,0.016,0.07,0.081,1.68,0.012,7076.3,1.44,232.8,232.0,233.6,6.0,50.0,6081.68,855.05,74.0,69.0,0.0,2.81,1662015279.0,0.0,1.0,1.0,28.0,6.04625
2022-09-01T06:59:13.9115,0.2,0.254,-0.005,-0.059,0.127,1.68,0.171,7076.31,1.45,226.8,235.3,230.6,-10.0,50.0,6081.68,855.05,74.0,-45.0,0.0,2.81,1662015548.0,0.0,2.0,1.0,29.0,6.0475
2022-09-01T07:03:47.053,0.076,0.389,0.313,0.0,0.0,1.68,0.0,7076.32,1.46,231.0,235.1,232.0,-301.0,50.02,6081.68,855.05,74.0,0.0,0.0,2.81,1662015820.0,0.0,2.0,1.0,29.0,6.05
2022-09-01T07:08:14.9926,0.27,0.287,0.005,-0.012,0.181,1.68,0.186,7076.33,1.47,235.8,236.3,231.1,-6.0,49.99,6081.68,855.07,74.0,-5.0,0.0,2.81,1662016088.0,0.0,1.0,1.0,29.0,6.05375
2022-09-01T07:12:44.0126,0.318,0.182,0.009,0.145,0.223,1.68,0.087,7076.33,1.47,233.3,236.1,230.8,0.0,49.99,6081.68,855.07,74.0,141.0,0.01,2.82,1662016358.0,0.0,2.0,2.0,29.0,6.05625
2022-09-01T07:17:16.7982,0.327,0.153,0.008,0.182,0.232,1.68,0.049,7076.34,1.48,232.3,232.8,231.5,-6.0,49.97,6081.68,855.07,74.0,175.0,0.01,2.82,1662016631.0,0.0,1.0,2.0,29.0,6.05875
2022-09-01T07:21:45.5459,0.316,0.153,0.005,0.168,0.237,1.68,0.061,7076.35,1.49,229.1,233.8,227.3,-16.0,49.99,6081.68,855.07,74.0,173.0,0.02,2.82,1662016900.0,0.0,1.0,2.0,29.0,6.06
2022-09-01T07:26:15.5195,0.319,0.271,0.017,0.065,0.232,1.68,0.158,7076.36,1.5,231.8,233.8,231.3,-13.0,49.97,6081.68,855.07,74.0,74.0,0.02,2.82,1662017169.0,0.0,1.0,2.0,29.0,6.0625
2022-09-01T07:30:48.2355,0.349,0.167,0.002,0.184,0.256,1.68,0.065,7076.36,1.5,231.3,230.0,231.3,7.0,50.0,6081.68,855.07,74.0,191.0,0.02,2.82,1662017442.0,0.0,2.0,1.0,29.0,6.065
2022-09-01T07:35:16.1365,0.388,0.162,0.006,0.232,0.275,1.68,0.191,7076.37,1.51,231.6,236.8,233.8,27.0,49.97,6081.68,855.07,74.0,84.0,0.03,2.82,1662017710.0,0.0,1.0,1.0,30.0,6.06875
2022-09-01T07:39:45.8176,0.529,0.162,0.004,0.371,0.383,1.68,0.012,7076.37,1.51,232.1,236.1,235.3,-1.0,49.97,6081.68,855.07,74.0,371.0,0.04,2.82,1662017980.0,0.0,2.0,1.0,30.0,6.07125
2022-09-01T07:44:16.0287,0.53,0.264,0.014,0.28,0.402,1.68,0.095,7076.38,1.52,230.5,235.8,234.3,1.0,50.0,6081.68,855.07,74.0,307.0,0.06,2.82,1662018250.0,0.0,1.0,1.0,30.0,6.0725
2022-09-01T07:48:44.409,0.746,0.149,-0.05,0.547,0.559,1.68,0.0,7076.38,1.52,234.8,234.3,233.6,42.0,49.97,6081.68,855.07,74.0,559.0,0.07,2.82,1662018517.0,0.0,2.0,1.0,30.0,6.075
2022-09-01T07:53:14.1171,0.918,0.159,-0.084,0.675,0.673,1.68,0.0,7076.38,1.52,232.1,235.3,231.3,82.0,49.97,6081.7,855.07,74.0,673.0,0.11,2.82,1662018788.0,0.0,1.0,1.0,30.0,6.07875
2022-09-01T07:57:45.5163,0.994,0.149,-0.114,0.731,0.732,1.68,0.0,7076.38,1.52,234.3,237.3,234.1,104.0,49.97,6081.7,855.07,74.0,732.0,0.14,2.82,1662019060.0,0.0,1.0,1.0,30.0,6.08125
2022-09-01T08:02:15.8016,1.108,0.226,-0.073,0.809,0.813,1.68,0.0,7076.38,1.52,229.3,232.8,231.1,87.0,50.0,6081.7,855.07,75.0,813.0,0.19,2.82,1662019330.0,0.0,1.0,2.0,29.0,6.08375
2022-09-01T08:06:47.6878,1.16,0.141,-0.169,0.85,0.856,1.68,0.0,7076.38,1.52,233.3,236.5,230.8,160.0,50.0,6081.72,855.07,75.0,854.0,0.27,2.82,1662019601.0,0.0,1.0,1.0,29.0,6.085
2022-09-01T08:11:17.5705,1.348,0.149,-0.207,0.992,0.997,1.68,0.0,7076.38,1.52,235.3,238.1,233.6,200.0,50.0,6081.72,855.07,75.0,999.0,0.31,2.82,1662019871.0,0.0,2.0,1.0,30.0,6.0875
2022-09-01T08:15:47.2549,1.487,0.155,-0.243,1.089,1.102,1.68,0.0,7076.38,1.52,235.3,237.1,233.5,246.0,49.97,6081.75,855.07,75.0,1102.0,0.37,2.82,1662020140.0,0.0,1.0,1.0,30.0,6.09125
2022-09-01T08:20:16.8934,1.474,0.188,-0.207,1.079,1.082,1.68,0.0,7076.38,1.52,233.1,235.3,235.8,92.0,50.0,6081.75,855.07,75.0,1083.0,0.43,2.82,1662020412.0,0.0,1.0,2.0,30.0,6.09375
2022-09-01T08:24:47.9089,1.758,0.301,-0.173,1.284,1.277,1.68,0.0,7076.38,1.52,234.8,237.3,236.1,262.0,50.0,6081.77,855.07,75.0,1277.0,0.53,2.82,1662020682.0,0.0,1.0,1.0,30.0,6.09625
2022-09-01T08:29:18.1792,3.736,0.197,-0.771,2.768,1.927,1.68,0.0,7076.38,1.52,234.1,234.3,234.3,486.0,50.0,6081.81,855.07,76.0,1927.0,0.59,2.82,1662020951.0,0.0,1.0,1.0,30.0,6.09875
2022-09-01T08:33:48.2023,3.793,0.204,-0.794,2.795,2.644,1.68,0.0,7076.38,1.52,238.1,236.1,234.6,725.0,50.0,6081.85,855.07,76.0,2583.0,0.79,2.82,1662021222.0,0.0,1.0,2.0,30.0,6.10125
2022-09-01T08:38:17.6448,3.808,0.229,-0.806,2.773,3.451,1.68,0.0,7076.38,1.52,239.8,237.6,233.8,945.0,49.99,6081.91,855.07,77.0,3473.0,0.97,2.82,1662021491.0,0.0,2.0,2.0,30.0,6.10375
2022-09-01T08:42:48.7501,2.825,0.327,-0.431,2.067,1.638,1.68,0.0,7076.38,1.52,236.8,234.3,233.6,386.0,50.0,6081.95,855.07,77.0,1638.0,1.12,2.82,1662021762.0,0.0,1.0,1.0,30.0,6.10625
2022-09-01T08:47:17.5533,3.27,0.173,-0.7,2.397,2.039,1.68,0.0,7076.38,1.52,238.8,235.0,233.1,574.0,50.0,6081.99,855.07,78.0,2039.0,1.29,2.82,1662022032.0,0.0,1.0,1.0,30.0,6.10875
2022-09-01T08:51:48.312,4.287,0.141,-0.953,3.193,1.836,1.68,0.0,7076.38,1.52,237.3,234.8,229.6,506.0,50.0,6082.04,855.07,78.0,1834.0,1.4,2.82,1662022303.0,0.0,1.0,2.0,29.0,6.1125
2022-09-01T08:56:17.1815,3.239,0.159,-0.673,2.407,1.873,1.68,0.0,7076.38,1.52,238.3,236.5,231.3,515.0,50.0,6082.08,855.07,79.0,1869.0,1.56,2.82,1662022571.0,0.0,1.0,1.0,29.0,6.11375
2022-09-01T09:00:46.5931,2.513,0.275,-0.41,1.828,1.997,1.68,0.0,7076.38,1.52,236.6,234.5,232.1,442.0,50.0,6082.12,855.07,79.0,1966.0,1.66,2.82,1662022841.0,0.0,1.0,1.0,29.0,6.11625
2022-09-01T09:05:15.3403,2.53,0.245,-0.427,1.858,2.83,1.68,0.0,7076.38,1.52,237.6,233.8,234.6,856.0,49.97,6082.16,855.07,79.0,2830.0,1.82,2.82,1662023108.0,0.0,1.0,1.0,30.0,6.11875
2022-09-01T09:09:46.2228,4.893,0.158,-1.125,3.61,3.144,1.68,0.0,7076.38,1.52,240.3,233.8,235.3,832.0,50.0,6082.24,855.07,80.0,3153.0,2.1,2.82,1662023381.0,0.0,2.0,1.0,30.0,6.12125
2022-09-01T09:14:14.8523,4.639,0.296,-0.939,3.404,3.69,1.68,0.0,7076.38,1.52,241.8,235.6,233.3,1078.0,50.0,6082.31,855.07,81.0,3728.0,2.21,2.82,1662023649.0,0.0,2.0,1.0,30.0,6.125
2022-09-01T09:18:43.4207,6.589,0.432,-1.293,4.864,4.825,1.68,0.0,7076.38,1.52,243.8,238.3,234.6,1265.0,50.0,6082.39,855.07,82.0,4825.0,2.55,2.82,1662023917.0,0.0,2.0,1.0,30.0,6.12625
2022-09-01T09:23:13.3906,6.041,0.332,-1.26,4.449,4.637,1.68,0.0,7076.38,1.52,245.8,240.8,235.8,1335.0,50.0,6082.47,855.07,83.0,4662.0,2.79,2.82,1662024188.0,0.0,2.0,2.0,30.0,6.12875
2022-09-01T09:27:44.4951,6.396,0.34,-1.336,4.72,4.496,1.68,0.0,7076.38,1.52,247.3,239.3,237.5,1277.0,50.0,6082.58,855.07,84.0,4512.0,3.22,2.82,1662024459.0,0.0,2.0,2.0,30.0,6.13125
2022-09-01T09:32:14.7438,6.381,0.334,-1.326,4.721,5.091,1.68,0.0,7076.38,1.52,239.6,231.3,230.1,1427.0,49.97,6082.66,855.07,85.0,5061.0,3.42,2.82,1662024729.0,0.0,1.0,2.0,29.0,6.135
2022-09-01T09:36:44.5576,6.604,0.451,-1.283,4.87,4.468,1.68,0.0,7076.38,1.52,245.8,237.8,237.1,1027.0,50.0,6082.77,855.07,86.0,4468.0,3.79,2.82,1662024998.0,0.0,2.0,2.0,30.0,6.1375
2022-09-01T09:41:19.2191,7.397,0.416,-1.519,5.462,4.301,1.68,0.0,7076.38,1.52,244.8,238.3,233.8,1217.0,50.0,6082.85,855.07,86.0,4253.0,4.22,2.82,1662025271.0,0.0,2.0,1.0,29.0,6.14
2022-09-01T09:45:45.405,6.145,0.28,-1.333,4.532,4.559,1.68,0.0,7076.38,1.52,243.6,239.5,234.5,1414.0,50.0,6082.95,855.07,88.0,4559.0,4.41,2.82,1662025538.0,0.0,1.0,2.0,30.0,6.14125
2022-09-01T09:50:16.7551,8.138,0.234,-1.863,6.041,3.652,1.68,0.0,7076.38,1.52,243.1,239.0,228.8,1043.0,49.99,6083.04,855.07,89.0,3652.0,4.7,2.82,1662025811.0,0.0,1.0,1.0,28.0,6.145
2022-09-01T09:54:47.0686,6.481,0.322,-1.384,4.775,3.805,1.68,0.0,7076.38,1.52,243.1,238.6,234.8,1110.0,50.0,6083.14,855.07,89.0,3898.0,5.09,2.82,1662026080.0,0.0,2.0,1.0,30.0,6.1475
2022-09-01T09:59:15.8824,7.983,0.303,-1.773,5.907,5.84,1.68,0.0,7076.38,1.52,248.8,240.8,235.6,1845.0,50.02,6083.27,855.07,90.0,5852.0,5.33,2.82,1662026350.0,0.0,2.0,2.0,30.0,6.15
2022-09-01T10:03:45.9276,7.881,0.177,-1.839,5.865,5.727,1.68,0.0,7076.38,1.52,249.8,240.6,236.1,1801.0,49.97,6083.39,855.07,92.0,5727.0,5.84,2.82,1662026620.0,0.0,1.0,2.0,30.0,6.1525
2022-09-01T10:08:16.0208,7.547,0.151,-1.787,5.609,5.578,1.952,1.633,7076.42,1.56,246.6,242.6,236.3,3389.0,49.99,6083.56,855.07,93.0,3945.0,6.07,2.82,1662026890.0,0.0,1.0,2.0,29.0,6.155
2022-09-01T10:12:46.7883,6.747,0.279,-6.468,0.0,5.055,5.101,5.055,7076.61,1.75,243.3,240.5,236.0,6530.0,49.99,6083.89,855.07,95.0,0.0,6.51,2.82,1662027161.0,0.0,1.0,2.0,29.0,6.1575
2022-09-01T10:17:16.2467,6.855,0.293,-6.562,0.0,1.965,5.107,1.965,7076.97,2.11,239.6,239.6,236.6,2404.0,49.99,6084.35,855.07,95.0,0.0,6.52,2.82,1662027431.0,0.0,2.0,1.0,30.0,6.16
2022-09-01T10:21:45.6096,7.295,0.255,-7.04,0.0,5.151,5.403,5.151,7077.33,2.46,249.3,241.8,236.1,6679.0,50.0,6084.81,855.07,96.0,0.0,6.53,2.82,1662027701.0,0.0,2.0,2.0,31.0,6.1625
2022-09-01T10:26:15.6195,7.094,0.392,-6.702,0.0,5.019,5.403,5.019,7077.72,2.85,250.5,240.3,238.1,6448.0,50.02,6085.31,855.07,96.0,0.0,6.53,2.82,1662027971.0,0.0,1.0,1.0,30.0,6.165
2022-09-01T10:30:46.6377,6.521,0.522,-5.999,0.0,1.785,5.413,1.785,7078.05,3.19,238.3,237.8,233.6,2084.0,50.0,6085.74,855.07,96.0,0.0,6.53,2.82,1662028242.0,0.0,2.0,2.0,30.0,6.16875
2022-09-01T10:35:17.6494,7.487,0.467,-7.02,0.0,5.533,5.537,5.533,7078.42,3.56,250.6,240.6,237.5,7125.0,49.97,6086.2,855.07,96.0,0.0,6.53,2.82,1662028512.0,0.0,2.0,1.0,30.0,6.17125
2022-09-01T10:39:46.5222,3.191,0.293,-2.898,0.0,5.11,5.651,5.11,7078.72,3.86,248.8,240.3,238.3,6347.0,49.97,6086.6,855.07,96.0,0.0,6.53,2.82,1662028782.0,0.0,1.0,2.0,30.0,6.1725
2022-09-01T10:44:15.8907,4.09,0.208,-3.882,0.0,3.589,5.651,3.589,7078.96,4.1,243.8,236.1,236.1,4919.0,50.0,6086.91,855.07,96.0,0.0,6.53,2.82,1662029050.0,0.0,1.0,1.0,30.0,6.175
2022-09-01T10:48:46.858,2.612,0.271,-2.341,0.0,1.908,5.948,1.908,7079.23,4.37,239.3,233.1,236.3,2232.0,50.0,6087.25,855.07,96.0,0.0,6.53,2.82,1662029322.0,0.0,1.0,1.0,30.0,6.17875
2022-09-01T10:53:15.7334,4.422,0.13,-4.292,0.0,4.147,5.948,4.147,7079.42,4.56,241.8,236.1,237.3,4037.0,49.97,6087.47,855.07,96.0,0.0,6.53,2.82,1662029590.0,0.0,1.0,1.0,30.0,6.18125
2022-09-01T10:57:46.3292,2.339,0.265,-2.074,0.0,1.941,5.948,1.941,7079.56,4.7,239.0,235.6,232.6,2408.0,50.0,6087.66,855.07,96.0,0.0,6.53,2.82,1662029861.0,0.0,1.0,1.0,29.0,6.18375
2022-09-01T11:02:17.1132,2.211,0.277,-1.934,0.0,1.538,5.948,1.538,7079.72,4.86,237.0,230.8,231.8,1838.0,49.97,6087.85,855.07,96.0,0.0,6.53,2.82,1662030132.0,0.0,1.0,1.0,29.0,6.18625
2022-09-01T11:06:45.0146,2.109,0.242,-1.867,0.0,1.682,5.948,1.682,7079.84,4.98,236.1,233.0,232.8,2073.0,49.99,6087.99,855.07,96.0,0.0,6.53,2.82,1662030400.0,0.0,1.0,1.0,30.0,6.18875
2022-09-01T11:11:15.3981,3.895,0.27,-3.625,0.0,3.013,5.948,3.013,7080.01,5.15,242.3,237.3,233.6,4005.0,50.0,6088.2,855.07,96.0,0.0,6.53,2.82,1662030670.0,0.0,2.0,1.0,30.0,6.19125
2022-09-01T11:15:43.7149,3.395,0.35,-3.045,0.0,1.955,5.948,1.955,7080.18,5.32,235.8,235.8,232.1,2391.0,49.97,6088.41,855.07,96.0,0.0,6.53,2.82,1662030937.0,0.0,1.0,1.0,29.0,6.19375
2022-09-01T11:20:15.2897,2.304,0.284,-2.02,0.0,1.721,5.948,1.721,7080.31,5.45,237.5,234.3,230.6,2088.0,49.97,6088.56,855.07,96.0,0.0,6.53,2.82,1662031211.0,0.0,1.0,1.0,29.0,6.19625
2022-09-01T11:24:45.2414,5.969,0.0,-5.969,0.0,3.336,5.948,3.336,7080.51,5.65,239.8,239.8,235.8,4587.0,50.0,6088.81,855.07,96.0,0.0,6.53,2.82,1662031480.0,0.0,1.0,1.0,30.0,6.2
2022-09-01T11:29:14.3631,7.817,0.358,-7.459,0.0,5.815,5.986,5.815,7080.78,5.92,250.6,242.1,238.8,7380.0,50.0,6089.16,855.07,96.0,0.0,6.53,2.82,1662031748.0,0.0,1.0,2.0,31.0,6.20125
2022-09-01T11:33:46.6742,5.4,0.37,-5.03,0.0,4.376,5.986,4.376,7081.16,6.3,247.6,240.3,239.0,5098.0,49.97,6089.66,855.07,96.0,0.0,6.53,2.82,1662032022.0,0.0,2.0,1.0,31.0,6.20375
2022-09-01T11:38:14.122,7.278,0.2,-7.078,0.0,5.287,5.986,5.287,7081.47,6.61,248.6,242.8,238.6,7082.0,50.0,6090.06,855.07,96.0,0.0,6.53,2.82,1662032289.0,0.0,1.0,1.0,31.0,6.20625
2022-09-01T11:42:43.2132,7.568,0.255,-7.313,0.0,5.108,5.986,5.108,7081.83,6.97,247.6,239.6,237.0,5386.0,49.97,6090.54,855.07,96.0,0.0,6.53,2.82,1662032558.0,0.0,1.0,1.0,30.0,6.20875
2022-09-01T11:47:14.5566,7.921,0.504,-7.417,0.0,4.884,5.986,4.884,7082.22,7.36,246.8,241.8,236.1,5982.0,49.97,6091.02,855.07,96.0,0.0,6.53,2.82,1662032830.0,0.0,2.0,1.0,30.0,6.2125
2022-09-01T11:51:44.2023,5.672,0.064,-5.608,0.0,2.122,5.986,2.122,7082.53,7.67,239.8,238.1,234.1,2628.0,49.99,6091.43,855.07,96.0,0.0,6.53,2.82,1662033097.0,0.0,1.0,1.0,30.0,6.215
2022-09-01T11:56:19.1473,,,,,2.297,5.986,2.297,7082.69,7.83,241.1,239.3,233.3,2881.0,50.0,6091.62,855.07,96.0,0.0,6.53,2.82,1662033373.0,0.0,1.0,1.0,30.0,6.2175
2022-09-01T12:00:45.8187,3.709,0.23,-3.479,0.0,2.66,5.986,2.66,7082.87,8.01,241.3,235.8,231.1,3390.0,49.99,6091.85,855.07,96.0,0.0,6.53,2.82,1662033639.0,0.0,1.0,1.0,29.0,6.21875
2022-09-01T12:05:13.1239,4.134,0.398,-3.736,0.0,3.12,5.986,3.12,7083.09,8.23,246.3,239.5,233.0,3861.0,49.97,6092.12,855.07,96.0,0.0,6.53,2.82,1662033907.0,0.0,2.0,1.0,29.0,6.2225
2022-09-01T12:09:45.2827,4.839,0.315,-4.524,0.0,3.591,6.227,3.591,7083.39,8.53,249.1,240.8,233.0,3598.0,49.97,6092.5,855.07,96.0,0.0,6.53,2.82,1662034180.0,0.0,2.0,1.0,30.0,6.225
2022-09-01T12:14:14.6754,5.307,1.574,-3.733,0.0,3.443,6.227,3.443,7083.65,8.79,244.3,240.1,231.8,3112.0,50.0,6092.75,855.07,96.0,0.0,6.53,2.82,1662034450.0,0.0,1.0,1.0,29.0,6.2275
2022-09-01T12:18:45.6393,5.02,1.989,-3.031,0.0,3.679,6.227,3.679,7083.92,9.06,247.3,242.6,233.3,3059.0,50.0,6092.97,855.07,96.0,0.0,6.53,2.82,1662034721.0,0.0,2.0,1.0,30.0,6.23
2022-09-01T12:23:13.9267,8.009,0.5,-7.509,0.0,6.378,7.599,6.378,7084.34,9.48,253.8,242.6,242.8,8098.0,49.97,6093.43,855.07,96.0,0.0,6.53,2.82,1662034988.0,0.0,1.0,2.0,31.0,6.2325
2022-09-01T12:27:43.6037,7.457,0.0,-7.457,0.0,6.503,7.599,6.503,7084.72,9.86,250.1,242.3,239.8,8516.0,49.99,6093.91,855.07,96.0,0.0,6.53,2.82,1662035259.0,0.0,1.0,1.0,31.0,6.235
2022-09-01T12:32:15.4877,7.875,0.354,-7.521,0.0,5.741,7.599,5.741,7085.19,10.33,249.8,243.1,240.6,7489.0,49.99,6094.52,855.07,96.0,0.0,6.53,2.82,1662035530.0,0.0,1.0,2.0,31.0,6.2375
2022-09-01T12:36:44.1823,7.65,0.305,-7.345,0.0,6.199,7.599,6.199,7085.64,10.78,251.3,244.8,240.3,8067.0,49.97,6095.12,855.07,96.0,0.0,6.53,2.82,1662035799.0,0.0,2.0,1.0,31.0,6.24
2022-09-01T12:41:15.3651,5.667,0.173,-5.494,0.0,3.578,7.599,3.578,7086.02,11.16,241.0,232.8,235.3,4513.0,49.99,6095.6,855.07,96.0,0.0,6.53,2.82,1662036070.0,0.0,1.0,2.0,29.0,6.24375
2022-09-01T12:45:46.6414,4.793,0.308,-4.485,0.0,3.187,7.599,3.187,7086.31,11.45,239.3,233.0,237.1,4020.0,50.0,6095.97,855.07,96.0,0.0,6.54,2.82,1662036340.0,0.0,1.0,1.0,29.0,6.24625
2022-09-01T12:50:15.6187,3.644,0.178,-3.466,0.0,2.715,7.599,2.715,7086.51,11.65,242.1,236.1,237.8,3537.0,49.99,6096.24,855.07,96.0,0.0,6.54,2.82,1662036609.0,0.0,2.0,1.0,31.0,6.24875
2022-09-01T12:54:44.6823,3.583,0.167,-3.416,0.0,2.628,7.599,2.628,7086.71,11.85,238.1,232.8,231.5,3422.0,50.0,6096.5,855.07,96.0,0.0,6.54,2.82,1662036879.0,0.0,1.0,1.0,29.0,6.25
2022-09-01T12:59:14.8803,4.008,0.17,-3.838,0.0,2.986,7.599,2.986,7086.92,12.06,240.6,235.3,238.3,3796.0,50.0,6096.77,855.07,96.0,0.0,6.54,2.82,1662037149.0,0.0,1.0,1.0,31.0,6.25375
2022-09-01T13:03:45.1341,3.863,0.273,-3.59,0.0,2.793,7.599,2.793,7087.15,12.29,242.1,235.8,236.3,3532.0,50.0,6097.06,855.07,96.0,0.0,6.54,2.82,1662037419.0,0.0,1.0,1.0,30.0,6.25625
2022-09-01T13:08:13.6893,3.836,0.15,-3.686,0.0,2.889,7.599,2.889,7087.35,12.49,239.8,235.8,235.3,3766.0,49.97,6097.31,855.07,96.0,0.0,6.54,2.82,1662037688.0,0.0,2.0,1.0,30.0,6.25875
2022-09-01T13:12:43.8627,3.807,0.216,-3.591,0.0,2.751,7.599,2.751,7087.57,12.71,242.1,236.8,232.3,3536.0,50.0,6097.6,855.07,96.0,0.0,6.54,2.82,1662037958.0,0.0,1.0,1.0,30.0,6.26125
2022-09-01T13:17:13.105,3.426,0.215,-3.211,0.0,2.498,7.599,2.498,7087.76,12.9,238.1,235.8,233.3,3205.0,50.0,6097.85,855.07,96.0,0.0,6.54,2.82,1662038229.0,0.0,1.0,1.0,30.0,6.26375
2022-09-01T13:21:42.6147,3.622,0.282,-3.34,0.0,2.676,7.599,2.676,7087.95,13.09,240.0,236.8,235.3,3356.0,50.0,6098.08,855.07,96.0,0.0,6.54,2.82,1662038497.0,0.0,2.0,2.0,30.0,6.26625
2022-09-01T13:26:16.1084,,,,,2.705,7.599,2.705,7088.15,13.29,240.8,237.3,236.6,3456.0,50.0,6098.35,855.07,96.0,0.0,6.54,2.82,1662038770.0,0.0,1.0,2.0,30.0,6.26875
2022-09-01T13:30:42.5849,3.387,0.293,-3.094,0.0,2.465,7.599,2.465,7088.34,13.48,239.6,236.3,235.8,3087.0,50.0,6098.58,855.07,96.0,0.0,6.54,2.82,1662039037.0,0.0,1.0,1.0,30.0,6.27125
2022-09-01T13:35:13.3777,3.175,0.277,-2.898,0.0,2.318,7.599,2.318,7088.52,13.66,241.3,236.0,232.8,2893.0,49.99,6098.81,855.07,96.0,0.0,6.54,2.82,1662039308.0,0.0,1.0,1.0,29.0,6.27375
2022-09-01T13:39:43.4092,3.714,0.333,-3.381,0.0,2.703,7.599,2.703,7088.71,13.85,241.3,235.6,234.3,3385.0,50.0,6099.04,855.07,96.0,0.0,6.54,2.82,1662039578.0,0.0,2.0,1.0,30.0,6.2775
2022-09-01T13:44:12.2224,4.39,0.241,-4.149,0.0,3.272,7.599,3.272,7088.92,14.06,243.5,237.3,235.3,4264.0,50.02,6099.31,855.07,96.0,0.0,6.54,2.82,1662039846.0,0.0,1.0,2.0,30.0,6.28
2022-09-01T13:48:40.2951,5.024,0.257,-4.767,0.0,3.795,7.599,3.795,7089.22,14.36,249.6,241.3,235.0,5003.0,50.0,6099.7,855.07,96.0,0.0,6.54,2.82,1662040115.0,0.0,1.0,2.0,30.0,6.28125
2022-09-01T13:53:11.029,8.054,0.249,-7.805,0.0,5.945,7.599,5.945,7089.61,14.75,247.6,241.8,236.3,7841.0,50.02,6100.22,855.07,96.0,0.0,6.54,2.82,1662040384.0,0.0,1.0,1.0,30.0,6.28375
2022-09-01T13:57:41.5336,7.548,0.335,-7.213,0.0,5.472,7.599,5.472,7090.02,15.16,244.3,241.8,236.6,7130.0,50.02,6100.75,855.07,96.0,0.0,6.54,2.82,1662040655.0,0.0,1.0,1.0,31.0,6.2875
2022-09-01T14:02:12.2808,7.215,0.241,-6.974,0.0,5.22,7.599,5.22,7090.43,15.57,248.3,239.5,230.8,6870.0,50.0,6101.29,855.07,96.0,0.0,6.54,2.82,1662040925.0,0.0,1.0,2.0,29.0,6.29
2022-09-01T14:06:38.8023,7.088,0.258,-6.83,0.0,5.184,7.599,5.184,7090.82,15.96,251.6,239.3,232.6,6735.0,50.0,6101.79,855.07,96.0,0.0,6.54,2.82,1662041192.0,0.0,2.0,2.0,29.0,6.2925
2022-09-01T14:11:11.0352,5.922,0.288,-5.634,0.0,4.286,7.599,4.286,7091.18,16.32,244.6,240.1,236.8,5330.0,49.97,6102.25,855.07,96.0,0.0,6.54,2.82,1662041465.0,0.0,2.0,2.0,30.0,6.29375
2022-09-01T14:15:39.3574,3.633,0.334,-3.299,0.0,3.065,7.599,3.065,7091.43,16.57,238.3,238.6,234.8,3861.0,49.97,6102.58,855.07,96.0,0.0,6.54,2.82,1662041733.0,0.0,2.0,1.0,30.0,6.2975
2022-09-01T14:20:10.6457,4.55,0.358,-4.192,0.0,2.467,7.599,2.467,7091.68,16.82,236.3,233.3,234.3,2803.0,50.0,6102.89,855.07,96.0,0.0,6.54,2.82,1662042005.0,0.0,1.0,2.0,29.0,6.3
2022-09-01T14:24:40.2108,5.72,0.331,-5.389,0.0,4.178,7.599,4.178,7091.94,17.07,248.6,235.8,236.8,5371.0,50.0,6103.22,855.07,96.0,0.0,6.54,2.82,1662042272.0,0.0,2.0,2.0,30.0,6.3025
2022-09-01T14:29:09.105788,5.473,0.437,-5.036,0.0,3.799,7.599,3.799,7092.27,17.41,245.8,236.3,236.8,4857.0,50.02,6103.64,855.07,96.0,0.0,6.54,2.82,1662042544.0,0.0,1.0,2.0,30.0,6.305
2022-09-01T14:33:38.1075,6.176,0.261,-5.915,0.0,4.542,7.599,4.542,7092.58,17.72,244.6,236.6,235.8,5918.0,49.97,6104.04,855.07,96.0,0.0,6.54,2.82,1662042812.0,0.0,2.0,2.0,30.0,6.30875
2022-09-01T14:38:07.707377,6.363,0.35,-6.013,0.0,4.531,7.599,4.531,7092.92,18.06,243.5,239.8,235.3,5825.0,50.0,6104.49,855.07,96.0,0.0,6.54,2.82,1662043082.0,0.0,2.0,2.0,30.0,6.31
2022-09-01T14:42:37.609,6.217,0.247,-5.97,0.0,4.808,7.599,4.808,7093.26,18.4,247.8,238.0,236.0,6354.0,50.0,6104.91,855.07,96.0,0.0,6.54,2.82,1662043352.0,0.0,1.0,2.0,30.0,6.3125
2022-09-01T14:47:07.830412,6.556,0.367,-6.189,0.0,4.749,7.599,4.749,7093.63,18.77,246.3,235.1,236.1,6063.0,49.99,6105.41,855.07,96.0,0.0,6.54,2.82,1662043622.0,0.0,2.0,1.0,30.0,6.315
2022-09-01T14:51:38.0252,6.207,0.365,-5.842,0.0,4.551,7.599,4.551,7093.98,19.12,243.8,238.8,238.8,5915.0,49.99,6105.85,855.07,96.0,0.0,6.54,2.82,1662043893.0,0.0,1.0,1.0,31.0,6.3175
2022-09-01T14:56:08.200580,6.436,0.47,-5.966,0.0,4.689,7.599,4.689,7094.34,19.48,244.0,234.8,237.0,5921.0,50.0,6106.31,855.07,96.0,0.0,6.54,2.82,1662044163.0,0.0,2.0,2.0,31.0,6.32125
2022-09-01T15:00:37.7485,6.196,0.319,-5.877,0.0,4.51,7.599,4.51,7094.69,19.83,243.1,238.8,237.1,5786.0,49.97,6106.75,855.07,96.0,0.0,6.54,2.82,1662044433.0,0.0,2.0,2.0,30.0,6.32375
2022-09-01T15:05:09.597078,6.041,0.382,-5.659,0.0,4.445,7.599,4.445,7095.03,20.17,246.5,235.8,237.3,5665.0,49.97,6107.18,855.07,96.0,0.0,6.54,2.82,1662044704.0,0.0,1.0,2.0,30.0,6.325
2022-09-01T15:09:37.6601,6.038,0.388,-5.65,0.0,4.489,7.599,4.489,7095.37,20.5,245.8,238.8,238.1,5700.0,50.0,6107.62,855.07,96.0,0.0,6.55,2.82,1662044972.0,0.0,2.0,2.0,30.0,6.3275
2022-09-01T15:14:06.423446,5.959,0.403,-5.556,0.0,4.367,7.599,4.367,7095.69,20.83,244.6,238.3,236.3,5489.0,50.0,6108.02,855.07,96.0,0.0,6.55,2.82,1662045241.0,0.0,2.0,1.0,30.0,6.33125
2022-09-01T15:18:37.0332,5.695,0.308,-5.387,0.0,4.18,7.599,4.18,7096.01,21.15,241.8,239.8,237.3,5402.0,49.97,6108.43,855.07,96.0,0.0,6.55,2.82,1662045512.0,0.0,2.0,2.0,30.0,6.33375
2022-09-01T15:23:11.5863,5.443,0.336,-5.107,0.0,4.012,7.599,4.012,7096.3,21.44,244.1,236.3,236.3,5087.0,50.0,6108.81,855.07,96.0,0.0,6.55,2.82,1662045785.0,0.0,2.0,2.0,30.0,6.33625
2022-09-01T15:27:38.0856,5.679,0.363,-5.316,0.0,4.234,7.599,4.234,7096.61,21.75,247.3,235.5,235.8,5378.0,49.99,6109.2,855.07,96.0,0.0,6.55,2.82,1662046052.0,0.0,1.0,2.0,30.0,6.33875
2022-09-01T15:32:08.395150,5.842,0.403,-5.439,0.0,4.26,7.599,4.26,7096.92,22.06,244.1,236.3,237.3,5329.0,50.0,6109.6,855.07,96.0,0.0,6.55,2.82,1662046322.0,0.0,1.0,2.0,30.0,6.34125
2022-09-01T15:36:39.837,5.356,0.337,-5.019,0.0,3.966,7.599,3.966,7097.23,22.36,244.1,238.6,234.8,5015.0,50.0,6109.97,855.07,96.0,0.0,6.55,2.82,1662046595.0,0.0,2.0,1.0,30.0,6.34375
2022-09-01T15:41:08.573680,5.214,0.305,-4.909,0.0,3.794,7.599,3.794,7097.52,22.66,243.3,237.3,237.0,4845.0,49.99,6110.33,855.07,96.0,0.0,6.55,2.82,1662046863.0,0.0,1.0,2.0,30.0,6.34625
2022-09-01T15:45:38.2946,4.911,0.443,-4.468,0.0,3.594,7.599,3.594,7097.8,22.94,247.1,234.6,237.6,4504.0,49.97,6110.68,855.07,96.0,0.0,6.55,2.82,1662047132.0,0.0,1.0,2.0,30.0,6.34875
2022-09-01T15:50:10.6375,4.545,0.387,-4.158,0.0,3.369,7.599,3.369,7098.05,23.19,246.0,234.5,238.1,4245.0,50.0,6111.0,855.07,96.0,0.0,6.55,2.82,1662047406.0,0.0,1.0,2.0,30.0,6.3525
2022-09-01T15:54:38.5961,4.329,2.308,-2.021,0.0,3.22,7.599,3.22,7098.31,23.45,239.3,236.3,238.3,2018.0,49.99,6111.27,855.07,96.0,0.0,6.55,2.82,1662047672.0,0.0,3.0,1.0,30.0,6.355
2022-09-01T15:59:07.464517,4.633,0.376,-4.257,0.0,3.359,7.599,3.359,7098.57,23.71,245.1,234.5,237.8,4205.0,50.02,6111.49,855.07,96.0,0.0,6.55,2.82,1662047942.0,0.0,2.0,2.0,31.0,6.3575
2022-09-01T16:03:38.1752,4.193,0.388,-3.805,0.0,2.812,7.599,2.812,7098.81,23.95,240.1,237.3,234.5,3363.0,50.0,6111.79,855.07,96.0,0.0,6.55,2.82,1662048213.0,0.0,1.0,2.0,30.0,6.35875
2022-09-01T16:08:06.654980,4.977,0.317,-4.66,0.0,3.678,7.599,3.678,7099.06,24.2,244.8,236.3,235.3,4268.0,50.0,6112.1,855.07,96.0,0.0,6.55,2.82,1662048481.0,0.0,2.0,2.0,30.0,6.3625
2022-09-01T16:12:35.5269,4.538,0.595,-3.943,0.0,3.324,7.599,3.324,7099.33,24.47,244.1,236.1,235.3,3810.0,50.0,6112.41,855.07,96.0,0.0,6.55,2.82,1662048751.0,0.0,1.0,2.0,30.0,6.365
2022-09-01T16:17:05.293435,4.688,0.574,-4.114,0.0,3.507,7.599,3.507,7099.57,24.71,244.1,236.8,236.8,4113.0,49.99,6112.7,855.07,96.0,0.0,6.55,2.82,1662049019.0,0.0,2.0,2.0,30.0,6.3675
2022-09-01T16:21:35.4985,5.131,3.501,-1.63,0.0,3.884,7.599,3.884,7099.85,24.98,235.8,239.8,238.1,1730.0,49.97,6112.81,855.07,96.0,0.0,6.55,2.82,1662049290.0,0.0,1.0,1.0,31.0,6.37
2022-09-01T16:26:06.479515,1.729,0.435,-1.294,0.0,1.251,7.599,1.251,7100.05,25.19,235.3,234.8,235.0,1330.0,49.99,6112.97,855.07,96.0,0.0,6.55,2.83,1662049560.0,0.0,1.0,1.0,30.0,6.37375
2022-09-01T16:30:35.0821,1.584,2.954,1.37,0.0,1.15,7.599,1.62,7100.15,25.29,230.0,237.8,235.3,75.0,50.0,6113.02,855.07,96.0,-470.0,6.55,2.83,1662049829.0,0.0,1.0,1.0,30.0,6.375
2022-09-01T16:35:10.4567,1.415,0.328,-1.087,0.0,1.025,7.599,1.025,7100.23,25.37,231.8,236.8,234.8,-29.0,50.0,6113.04,855.07,96.0,0.0,6.55,2.84,1662050104.0,0.0,1.0,1.0,30.0,6.3775
2022-09-01T16:39:34.6015,1.325,1.137,-0.188,0.0,0.96,7.599,1.26,7100.31,25.45,235.3,233.1,234.5,959.0,50.0,6113.08,855.07,95.0,-300.0,6.55,2.84,1662050366.0,0.0,1.0,2.0,30.0,6.38
2022-09-01T16:44:04.125363,1.124,0.307,-0.825,-0.008,0.825,7.599,0.825,7100.39,25.53,226.3,237.3,235.3,-1870.0,49.97,6113.1,855.07,95.0,0.0,6.55,2.85,1662050638.0,0.0,1.0,1.0,30.0,6.3825
2022-09-01T16:48:37.1003,1.057,0.372,-0.685,0.0,0.779,7.599,1.253,7100.46,25.6,233.8,234.3,234.0,635.0,49.97,6113.1,855.07,95.0,0.0,6.55,2.85,1662050912.0,0.0,1.0,1.0,30.0,6.38625
2022-09-01T16:53:05.288997,1.048,0.66,-0.807,-0.419,0.732,7.599,0.732,7100.53,25.67,225.5,237.3,235.0,-1911.0,49.99,6113.12,855.07,95.0,0.0,6.55,2.88,1662051179.0,0.0,2.0,2.0,30.0,6.38875
2022-09-01T16:57:36.0875,0.908,0.435,-0.473,0.0,0.677,7.599,1.339,7100.6,25.74,233.6,233.8,234.3,547.0,49.99,6113.12,855.07,95.0,-290.0,6.55,2.9,1662051450.0,0.0,1.0,2.0,30.0,6.39
2022-09-01T17:02:04.456518,0.84,1.209,-1.088,-1.457,0.561,7.599,0.561,7100.68,25.82,224.8,239.3,236.3,-2303.0,50.0,6113.12,855.08,95.0,0.0,6.55,2.92,1662051719.0,0.0,1.0,1.0,30.0,6.39375
2022-09-01T17:06:35.1171,0.751,2.581,1.83,0.0,0.534,7.599,1.817,7100.76,25.9,228.1,239.3,237.0,8.0,50.0,6113.12,855.09,95.0,-1283.0,6.55,2.98,1662051990.0,0.0,1.0,2.0,30.0,6.39625
2022-09-01T17:11:05.678331,0.64,0.317,-0.323,0.0,0.448,7.599,0.448,7100.81,25.95,232.8,236.3,234.5,235.0,49.97,6113.12,855.09,95.0,0.0,6.55,3.02,1662052259.0,0.0,1.0,1.0,30.0,6.39875
2022-09-01T17:15:34.9217,0.642,0.325,-0.317,0.0,0.451,7.599,0.451,7100.84,25.98,234.6,236.6,235.6,312.0,50.0,6113.14,855.09,95.0,0.0,6.55,3.03,1662052529.0,0.0,1.0,1.0,30.0,6.40125
2022-09-01T17:20:08.799793,0.617,0.513,-0.104,0.0,,,,,,,,,,,,,,,,,,,2.0,1.0,30.0,6.40375
2022-09-01T17:24:36.5551,0.651,0.681,-0.02,-0.05,0.462,7.599,0.462,7100.91,26.05,234.6,237.6,235.8,81.0,49.97,6113.16,855.09,95.0,0.0,6.56,3.03,1662053070.0,0.0,2.0,1.0,30.0,6.405
2022-09-01T17:29:07.163830,0.825,0.504,-0.321,0.0,0.601,7.599,0.601,7100.95,26.09,232.8,235.0,231.3,352.0,50.0,6113.18,855.09,95.0,0.0,6.56,3.03,1662053342.0,0.0,1.0,1.0,29.0,6.4075
2022-09-01T17:33:37.2041,0.938,0.252,-0.686,0.0,0.698,7.599,0.698,7101.0,26.14,232.8,234.6,232.5,719.0,50.02,6113.22,855.09,95.0,0.0,6.56,3.03,1662053612.0,0.0,1.0,1.0,29.0,6.41125
2022-09-01T17:38:07.067314,2.209,0.283,-1.926,0.0,1.605,7.599,1.605,7101.07,26.21,238.1,232.6,233.8,1893.0,49.99,6113.29,855.09,95.0,0.0,6.56,3.03,1662053881.0,0.0,1.0,2.0,29.0,6.41375
2022-09-01T17:42:38.9807,0.844,0.264,-0.58,0.0,0.599,7.599,0.599,7101.15,26.29,233.3,232.8,232.8,472.0,49.97,6113.37,855.09,95.0,0.0,6.56,3.03,1662054152.0,0.0,2.0,1.0,30.0,6.4175
2022-09-01T17:47:08.479362,0.701,0.335,-0.366,0.0,0.495,7.599,0.495,7101.19,26.33,232.8,233.8,231.1,339.0,49.99,6113.41,855.09,95.0,0.0,6.56,3.03,1662054422.0,0.0,1.0,1.0,29.0,6.42
2022-09-01T17:51:38.4689,0.589,0.289,-0.3,0.0,0.419,7.599,0.419,7101.22,26.36,234.6,236.3,233.1,298.0,49.97,6113.43,855.09,95.0,0.0,6.56,3.03,1662054693.0,0.0,1.0,2.0,29.0,6.42125
2022-09-01T17:56:09.597477,0.479,0.277,-0.202,0.0,0.348,7.599,0.348,7101.25,26.39,234.6,236.8,234.1,199.0,49.97,6113.45,855.09,95.0,0.0,6.56,3.03,1662054964.0,0.0,1.0,1.0,30.0,6.42375
2022-09-01T18:00:38.8424,0.423,0.417,-0.006,0.0,0.292,7.599,0.292,7101.27,26.41,233.1,238.1,233.8,12.0,50.04,6113.47,855.09,95.0,0.0,6.56,3.03,1662055232.0,0.0,1.0,2.0,30.0,6.42625
2022-09-01T18:05:11.3215,0.361,0.393,0.0,-0.032,0.249,7.599,0.282,7101.3,26.44,231.0,233.8,233.1,-3.0,50.04,6113.47,855.09,95.0,-35.0,6.56,3.03,1662055505.0,0.0,1.0,1.0,30.0,6.42875
2022-09-01T18:09:38.5744,0.249,0.315,0.007,-0.059,0.171,7.599,0.255,7101.31,26.45,231.0,230.6,233.3,2.0,50.02,6113.47,855.09,95.0,-84.0,6.56,3.03,1662055773.0,0.0,2.0,1.0,30.0,6.43125
2022-09-01T18:14:08.093283,0.207,0.321,0.016,-0.098,0.146,7.599,0.252,7101.33,26.47,233.5,236.5,235.3,-2.0,50.0,6113.47,855.09,95.0,-101.0,6.56,3.05,1662056043.0,0.0,1.0,1.0,30.0,6.43375
2022-09-01T18:18:38.5656,0.17,0.214,-0.001,-0.045,0.113,7.599,0.157,7101.35,26.49,234.0,236.3,234.5,0.0,49.97,6113.47,855.09,95.0,-44.0,6.56,3.06,1662056313.0,0.0,1.0,1.0,30.0,6.4375
2022-09-01T18:23:07.344486,0.188,0.303,0.0,-0.115,0.131,7.599,0.248,7101.37,26.51,232.3,235.8,235.1,-4.0,49.97,6113.47,855.09,95.0,-117.0,6.56,3.07,1662056582.0,0.0,1.0,1.0,30.0,6.44
2022-09-01T18:27:38.6853,0.18,0.163,-0.017,0.0,0.124,7.599,0.124,7101.38,26.52,232.8,234.8,233.8,37.0,49.97,6113.47,855.09,95.0,0.0,6.56,3.08,1662056853.0,0.0,1.0,2.0,30.0,6.4425
2022-09-01T18:32:11.6657,0.199,0.141,-0.058,0.0,0.134,7.599,0.134,7101.39,26.53,231.3,233.0,231.8,61.0,50.0,6113.47,855.09,95.0,0.0,6.56,3.08,1662057124.0,0.0,1.0,1.0,29.0,6.445
2022-09-01T18:36:39.2365,0.256,0.164,-0.092,0.0,0.17,7.599,0.17,7101.4,26.54,231.8,233.3,231.3,102.0,49.97,6113.47,855.09,95.0,0.0,6.56,3.08,1662057393.0,0.0,1.0,1.0,29.0,6.44625
2022-09-01T18:41:08.534042,0.284,0.281,-0.003,0.0,0.201,7.599,0.201,7101.42,26.56,228.3,236.8,233.6,18.0,49.95,6113.47,855.09,95.0,0.0,6.56,3.08,1662057664.0,0.0,1.0,2.0,30.0,6.44875
2022-09-01T18:45:37.4641,0.376,0.793,0.013,-0.404,0.273,7.599,0.893,7101.45,26.59,235.0,235.0,228.8,-11.0,49.97,6113.47,855.09,95.0,-620.0,6.56,3.1,1662057933.0,0.0,1.0,1.0,29.0,6.45125
2022-09-01T18:50:09.409976,0.301,0.859,0.0,-0.558,0.2,7.599,0.767,7101.52,26.66,234.6,235.8,231.6,-1.0,50.0,6113.47,855.09,95.0,-567.0,6.56,3.14,1662058204.0,0.0,1.0,1.0,29.0,6.45375
2022-09-01T18:54:40.8205,0.225,0.78,0.0,-0.555,0.15,7.599,0.751,7101.57,26.71,232.0,234.3,231.8,-2.0,49.97,6113.47,855.09,95.0,-604.0,6.56,3.21,1662058476.0,0.0,1.0,1.0,29.0,6.4575
2022-09-01T18:59:08.883740,0.142,0.56,-0.339,-0.757,0.105,7.599,0.862,7101.63,26.77,228.1,234.8,233.0,69.0,50.02,6113.47,855.09,95.0,-588.0,6.56,3.25,1662058743.0,0.0,1.0,2.0,30.0,6.46
2022-09-01T19:03:39.9457,0.102,0.809,-0.004,-0.711,0.078,7.599,0.789,7101.7,26.84,234.1,236.1,233.6,-17.0,50.04,6113.47,855.09,95.0,-706.0,6.56,3.33,1662059014.0,0.0,1.0,1.0,30.0,6.4625
2022-09-01T19:08:10.5043,0.081,0.829,0.005,-0.743,0.06,7.599,0.856,7101.76,26.9,235.6,233.8,234.1,-2.0,50.0,6113.47,855.09,94.0,-796.0,6.56,3.38,1662059284.0,0.0,1.0,1.0,30.0,6.465
2022-09-01T19:12:40.8087,0.048,0.819,-0.007,-0.778,0.041,7.599,0.839,7101.82,26.96,232.6,232.1,231.6,0.0,50.0,6113.47,855.09,94.0,-795.0,6.56,3.48,1662059554.0,0.0,2.0,1.0,29.0,6.4675
2022-09-01T19:14:55.5356,0.046,0.903,-0.001,-0.858,0.036,7.599,0.901,7101.85,26.99,232.0,234.1,228.5,0.0,50.0,6113.47,855.09,93.0,-860.0,6.57,3.52,1662059690.0,0.0,2.0,1.0,29.0,6.46875