File: docs/data/huawei_sun2000_20220903060208.csv
local_time,total_input_power,load_power,grid_power,total_battery_power,input_power,day_active_power_peak,active_power,accumulated_yield_energy,daily_yield_energy,grid_voltage_a_phase,b_phase_voltage,c_phase_voltage,power_meter_active_power,grid_frequency,grid_exported_energy,grid_accumulated_energy,storage_state_of_capacity,storage_charge_discharge_power,storage_current_day_charge_capacity,storage_current_day_discharge_capacity,backup_switch_to_off_grid,a_phase_active_power,b_phase_active_power,c_phase_active_power,forward_energy
2022-09-03T06:03:03.571967,0.0,0.191,0.001,-0.19,0.0,0.847,0.189,7140.38,1.66,233.5,236.3,235.1,-0.002,50.0,6151.22,855.35,75.0,-0.189,0.03,2.97,0.0,0.001,0.001,0.031,8.845
2022-09-03T06:05:08.223294,0.0,0.187,0.0,-0.187,,,,,,,,,,,,,,,,,,0.001,0.001,0.03,8.8475
2022-09-03T06:07:04.138267,0.0,0.189,0.0,-0.189,0.0,0.847,0.188,7140.39,1.67,232.6,235.3,234.1,-0.001,49.97,6151.22,855.35,75.0,-0.188,0.03,2.98,0.0,0.001,0.001,0.03,8.84875
2022-09-03T06:09:03.577503,0.0,0.193,0.001,-0.192,0.0,0.847,0.189,7140.39,1.67,230.8,235.3,233.8,-0.001,49.97,6151.22,855.35,75.0,-0.188,0.03,3.0,0.0,0.001,0.001,0.03,8.85
2022-09-03T06:11:03.217026,0.0,0.279,0.009,-0.27,0.0,0.847,0.297,7140.4,1.68,231.5,235.8,234.0,0.001,50.0,6151.22,855.35,74.0,-0.297,0.03,3.0,0.0,0.001,0.001,0.03,8.85125
2022-09-03T06:13:04.658008,0.0,0.286,0.0,-0.286,0.0,0.847,0.281,7140.41,1.69,229.8,235.6,233.8,0.002,49.97,6151.22,855.35,74.0,-0.282,0.03,3.02,0.0,0.001,0.001,0.03,8.85125
2022-09-03T06:15:07.687468,0.0,0.277,-0.001,-0.278,,,,,,,,,,,,,,,,,,0.001,0.002,0.03,8.8525
2022-09-03T06:17:03.746359,0.0,0.152,0.002,-0.15,0.0,0.847,0.153,7140.43,1.71,232.3,237.1,235.3,0.0,49.97,6151.22,855.35,74.0,-0.153,0.03,3.07,0.0,0.001,0.001,0.03,8.85375
2022-09-03T06:19:04.226599,0.0,0.152,0.0,-0.152,0.0,0.847,0.15,7140.43,1.71,231.8,237.1,234.1,0.0,50.0,6151.22,855.35,74.0,-0.149,0.03,3.07,0.0,0.001,0.001,0.03,8.855
2022-09-03T06:21:07.713204,,,,,0.0,0.847,0.149,7140.44,1.72,233.6,237.6,234.3,0.0,50.0,6151.22,855.35,74.0,-0.156,0.03,3.08,0.0,0.002,0.001,0.03,8.85625
2022-09-03T06:23:04.242959,0.0,0.16,0.002,-0.158,0.0,0.847,0.169,7140.44,1.72,234.1,236.8,234.1,0.011,50.0,6151.22,855.35,74.0,-0.158,0.03,3.09,0.0,0.001,0.001,0.029,8.85625
2022-09-03T06:25:08.685840,0.0,0.152,0.0,-0.152,,,,,,,,,,,,,,,,,,0.001,0.001,0.03,8.8575
2022-09-03T06:27:03.487874,0.0,0.154,0.0,-0.154,0.0,0.847,0.153,7140.45,1.73,233.5,236.3,234.3,0.001,49.97,6151.22,855.35,74.0,-0.157,0.03,3.11,0.0,0.001,0.001,0.03,8.85875
2022-09-03T06:29:04.077767,0.0,0.154,0.0,-0.154,0.0,0.847,0.152,7140.46,1.74,233.3,238.3,235.6,0.001,50.0,6151.22,855.35,74.0,-0.153,0.03,3.13,0.0,0.001,0.001,0.03,8.86
2022-09-03T06:31:04.678451,0.0,0.256,0.001,-0.255,0.0,0.847,0.253,7140.46,1.74,233.8,237.8,234.6,0.0,49.99,6151.22,855.35,74.0,-0.257,0.03,3.15,0.0,0.001,0.001,0.03,8.86125
2022-09-03T06:33:04.232952,0.001,0.249,0.0,-0.248,0.002,0.847,0.243,7140.47,1.75,233.5,237.6,234.8,-0.001,49.97,6151.22,855.35,74.0,-0.24,0.03,3.15,0.0,0.001,0.001,0.03,8.86125
2022-09-03T06:35:07.855154,0.005,0.241,0.001,-0.235,,,,,,,,,,,,,,,,,,0.001,0.001,0.03,8.8625
2022-09-03T06:37:04.031836,0.007,0.157,0.002,-0.148,0.008,0.847,0.154,7140.49,1.77,233.3,235.8,234.8,0.0,49.97,6151.22,855.35,74.0,-0.146,0.03,3.18,0.0,0.001,0.001,0.03,8.86375
2022-09-03T06:39:03.833714,0.0,0.0,0.0,0.0,0.011,0.847,0.154,7140.49,1.77,233.8,235.8,234.3,0.007,50.0,6151.22,855.35,74.0,-0.143,0.03,3.18,0.0,0.001,0.002,0.03,8.865
2022-09-03T06:41:08.109595,,,,,0.016,0.847,0.153,7140.5,1.78,235.1,236.1,234.8,0.0,50.0,6151.22,855.35,74.0,-0.141,0.03,3.2,0.0,0.001,0.001,0.03,8.86625
2022-09-03T06:43:03.258722,0.032,0.153,-0.002,-0.123,0.023,0.847,0.146,7140.5,1.78,236.0,236.6,235.8,0.001,50.0,6151.22,855.35,74.0,-0.123,0.03,3.21,0.0,0.001,0.001,0.03,8.8675
2022-09-03T06:45:07.831147,0.042,0.154,0.001,-0.111,,,,,,,,,,,,,,,,,,0.001,0.001,0.03,8.86875
2022-09-03T06:47:04.072706,0.049,0.154,0.002,-0.103,0.033,0.847,0.134,7140.51,1.79,235.6,237.1,234.1,0.003,50.0,6151.22,855.35,74.0,-0.103,0.03,3.23,0.0,0.001,0.001,0.03,8.87125
2022-09-03T06:49:03.000005,0.078,0.194,0.0,-0.116,0.044,0.847,0.16,7140.52,1.8,235.6,237.8,235.1,0.0,49.99,6151.22,855.35,74.0,-0.114,0.03,3.24,0.0,0.001,0.001,0.03,8.8725
2022-09-03T06:51:05.187836,0.08,0.284,0.0,-0.204,0.059,0.847,0.251,7140.52,1.8,235.1,237.3,235.6,0.001,49.99,6151.22,855.35,74.0,-0.193,0.03,3.26,0.0,0.001,0.001,0.03,8.87375
2022-09-03T06:53:03.173294,0.103,0.275,-0.001,-0.173,0.067,0.847,0.236,7140.53,1.81,235.1,237.3,235.1,-0.003,50.02,6151.22,855.35,74.0,-0.169,0.03,3.26,0.0,0.001,0.001,0.03,8.875
2022-09-03T06:55:04.482176,0.116,0.234,-0.04,-0.158,0.063,0.847,0.14,7140.54,1.82,235.6,236.3,235.1,-0.004,50.0,6151.22,855.35,74.0,-0.077,0.03,3.27,0.0,0.001,0.001,0.03,8.875
2022-09-03T06:57:04.435262,0.106,0.187,0.0,-0.081,0.069,0.847,0.148,7140.54,1.82,235.1,236.5,234.3,0.0,50.0,6151.22,855.35,74.0,-0.079,0.03,3.28,0.0,0.001,0.001,0.03,8.87625
2022-09-03T06:59:05.108708,0.114,0.18,-0.022,-0.088,0.075,0.847,0.148,7140.55,1.83,232.6,237.5,231.1,-0.002,50.0,6151.22,855.35,74.0,-0.072,0.03,3.28,0.0,0.001,0.001,0.029,8.8775
2022-09-03T07:01:03.227508,0.115,0.178,-0.003,-0.066,0.081,0.847,0.147,7140.55,1.83,233.3,235.8,233.1,0.0,50.0,6151.22,855.35,74.0,-0.069,0.03,3.29,0.0,0.001,0.001,0.03,8.87875
2022-09-03T07:03:04.662848,0.124,0.189,0.0,-0.065,0.083,0.847,0.145,7140.56,1.84,233.1,235.1,232.8,0.003,50.0,6151.22,855.35,74.0,-0.065,0.03,3.29,0.0,0.001,0.001,0.029,8.88
2022-09-03T07:05:03.789867,0.127,0.187,0.002,-0.058,0.087,0.847,0.14,7140.56,1.84,232.3,235.3,232.8,0.0,50.0,6151.22,855.35,74.0,-0.053,0.03,3.31,0.0,0.001,0.001,0.029,8.88
2022-09-03T07:07:03.785330,0.139,0.187,0.001,-0.047,0.095,0.847,0.146,7140.57,1.85,233.3,235.1,231.8,0.002,50.0,6151.22,855.35,74.0,-0.051,0.03,3.31,0.0,0.001,0.001,0.03,8.88125
2022-09-03T07:09:05.382198,0.143,0.181,-0.004,-0.042,0.111,0.847,0.238,7140.57,1.85,233.8,235.8,233.1,-0.003,50.0,6151.22,855.35,74.0,-0.135,0.03,3.31,0.0,0.001,0.001,0.03,8.8825
2022-09-03T07:11:03.382414,0.188,0.301,0.0,-0.113,0.116,0.847,0.229,7140.58,1.86,232.3,236.1,234.0,0.003,50.0,6151.22,855.35,74.0,-0.113,0.03,3.32,0.0,0.001,0.001,0.03,8.88375
2022-09-03T07:13:05.523079,0.166,0.269,0.001,-0.102,0.123,0.847,0.223,7140.59,1.87,233.1,235.1,234.1,0.001,50.0,6151.22,855.35,74.0,-0.097,0.03,3.32,0.0,0.001,0.001,0.03,8.885
2022-09-03T07:15:08.272570,0.178,0.191,0.006,-0.007,,,,,,,,,,,,,,,,,,0.001,0.001,0.03,8.88625
2022-09-03T07:17:03.137112,0.176,0.185,0.002,-0.007,0.12,0.847,0.129,7140.6,1.88,232.8,234.8,233.6,-0.001,50.0,6151.22,855.35,74.0,-0.008,0.03,3.33,0.0,0.001,0.001,0.029,8.88625
2022-09-03T07:19:02.632852,0.184,0.183,0.0,0.001,0.122,0.847,0.123,7140.6,1.88,233.1,233.6,233.6,-0.003,50.0,6151.22,855.35,74.0,0.0,0.03,3.33,0.0,0.001,0.001,0.03,8.8875
2022-09-03T07:21:08.471075,,,,,0.139,0.847,0.121,7140.61,1.89,233.6,234.6,233.6,0.0,50.0,6151.22,855.35,74.0,0.021,0.03,3.34,0.0,0.001,0.001,0.03,8.88875
2022-09-03T07:23:02.869458,0.202,0.167,0.003,0.038,0.156,0.847,0.115,7140.61,1.89,232.0,234.8,233.6,0.0,49.97,6151.22,855.35,74.0,0.041,0.03,3.34,0.0,0.001,0.001,0.03,8.89
2022-09-03T07:25:08.660213,0.231,0.138,0.0,0.093,,,,,,,,,,,,,,,,,,0.001,0.001,0.03,8.89125
2022-09-03T07:27:02.938276,0.07,0.189,0.119,0.0,0.0,0.847,0.0,7140.61,1.89,233.6,234.8,232.0,-0.119,50.0,6151.22,855.35,74.0,0.0,0.03,3.34,0.0,0.001,0.001,0.029,8.89125
2022-09-03T07:29:04.237858,0.232,0.255,0.006,-0.017,0.157,0.847,0.172,7140.62,1.9,234.1,233.8,234.1,-0.028,49.99,6151.22,855.36,74.0,-0.054,0.04,3.34,0.0,0.001,0.001,0.03,8.895
2022-09-03T07:31:03.544535,0.269,0.249,0.002,0.022,0.203,0.847,0.173,7140.62,1.9,233.0,233.8,232.8,0.001,50.0,6151.22,855.36,74.0,0.032,0.04,3.35,0.0,0.001,0.001,0.029,8.89625
2022-09-03T07:33:05.084020,0.281,0.229,0.0,0.052,0.229,0.847,0.162,7140.63,1.91,232.8,234.3,232.0,0.001,49.99,6151.22,855.36,74.0,0.067,0.04,3.35,0.0,0.001,0.001,0.029,8.8975
2022-09-03T07:35:08.634836,0.329,0.149,0.004,0.184,,,,,,,,,,,,,,,,,,0.001,0.001,0.029,8.89875
2022-09-03T07:37:05.376889,0.35,0.183,0.031,0.198,0.378,0.847,0.0,7140.63,1.91,233.6,236.1,232.6,-0.031,50.0,6151.22,855.36,74.0,0.345,0.04,3.35,0.0,0.001,0.001,0.029,8.89875
2022-09-03T07:39:04.445429,0.519,0.143,0.0,0.376,0.49,0.847,0.056,7140.64,1.92,234.8,235.3,234.1,0.0,50.0,6151.22,855.36,74.0,0.434,0.04,3.35,0.0,0.001,0.001,0.03,8.9
2022-09-03T07:41:08.079628,,,,,0.736,1.499,1.498,7140.64,1.92,230.6,237.6,236.1,-0.029,49.97,6151.22,855.36,74.0,-0.822,0.05,3.35,0.0,0.002,0.001,0.03,8.90125
2022-09-03T07:43:04.637850,0.987,1.663,0.006,-0.67,0.873,1.601,1.57,7140.69,1.97,230.8,237.6,235.6,-0.002,50.0,6151.22,855.36,74.0,-0.649,0.06,3.35,0.0,0.002,0.001,0.03,8.9025
2022-09-03T07:45:09.636212,1.1,1.623,0.0,-0.523,,,,,,,,,,,,,,,,,,0.001,0.001,0.03,8.90375
2022-09-03T07:47:04.469443,1.255,0.187,-0.024,1.044,1.134,1.601,0.0,7140.73,2.01,234.3,234.3,232.6,0.163,49.99,6151.22,855.36,74.0,1.145,0.07,3.39,0.0,0.001,0.001,0.03,8.905
2022-09-03T07:49:04.742747,1.503,0.189,-0.16,1.154,1.253,1.601,0.0,7140.73,2.01,233.6,234.1,232.3,0.05,49.97,6151.22,855.36,74.0,1.253,0.1,3.39,0.0,0.001,0.001,0.03,8.905
2022-09-03T07:51:07.295541,,,,,1.359,1.601,0.0,7140.73,2.01,234.8,235.8,233.3,0.131,50.0,6151.24,855.36,74.0,1.361,0.15,3.39,0.0,0.001,0.001,0.03,8.90625
2022-09-03T07:53:04.941005,1.895,0.342,-0.153,1.4,1.477,1.601,0.0,7140.73,2.01,232.3,235.3,231.8,0.271,49.97,6151.24,855.36,74.0,1.477,0.15,3.39,0.0,0.001,0.001,0.029,8.9075
2022-09-03T07:55:02.585194,2.063,0.253,-0.294,1.516,1.536,1.601,0.0,7140.73,2.01,232.3,235.6,232.1,0.387,49.97,6151.25,855.36,74.0,1.536,0.21,3.39,0.0,0.001,0.001,0.029,8.90875
2022-09-03T07:57:05.780308,2.124,0.183,-0.38,1.561,1.596,1.601,0.0,7140.73,2.01,233.8,234.6,229.0,0.385,49.97,6151.27,855.36,74.0,1.601,0.28,3.39,0.0,0.001,0.001,0.029,8.91
2022-09-03T07:59:04.183073,2.179,0.182,-0.384,1.613,1.644,1.601,0.0,7140.73,2.01,234.6,236.3,231.1,0.393,50.0,6151.27,855.36,74.0,1.644,0.28,3.39,0.0,0.001,0.001,0.029,8.91
2022-09-03T08:01:04.638106,2.277,0.192,-0.409,1.676,1.693,1.601,0.0,7140.73,2.01,236.8,234.3,227.3,0.416,50.02,6151.29,855.36,75.0,1.694,0.34,3.39,0.0,0.001,0.001,0.028,8.91125
2022-09-03T08:03:03.746445,2.345,0.244,-0.377,1.724,1.739,1.601,0.0,7140.73,2.01,234.1,235.5,227.1,0.381,50.02,6151.29,855.36,75.0,1.741,0.41,3.39,0.0,0.001,0.001,0.028,8.9125
2022-09-03T08:05:04.262548,2.433,0.334,-0.313,1.786,1.792,1.601,0.0,7140.73,2.01,236.1,238.8,233.8,0.313,50.02,6151.31,855.36,75.0,1.795,0.41,3.39,0.0,0.001,0.001,0.029,8.91375
2022-09-03T08:07:03.652799,2.512,0.246,-0.424,1.842,1.846,1.601,0.0,7140.73,2.01,232.3,235.5,230.3,0.427,50.02,6151.33,855.36,75.0,1.846,0.49,3.39,0.0,0.001,0.001,0.029,8.91375
2022-09-03T08:09:06.527512,2.512,0.246,-0.424,1.842,1.891,1.601,0.0,7140.73,2.01,233.1,235.3,230.8,0.341,50.0,6151.33,855.36,75.0,1.891,0.57,3.39,0.0,0.001,0.001,0.029,8.915
2022-09-03T08:11:08.677346,2.636,0.286,-0.415,1.935,1.938,1.601,0.0,7140.73,2.01,233.5,234.8,230.6,0.42,50.0,6151.35,855.36,75.0,1.938,0.66,3.39,0.0,0.001,0.001,0.029,8.91875
2022-09-03T08:13:05.182491,2.7,0.207,-0.51,1.983,1.989,1.601,0.0,7140.73,2.01,235.0,231.1,232.8,0.507,49.97,6151.37,855.36,76.0,1.991,0.66,3.39,0.0,0.001,0.001,0.03,8.92
2022-09-03T08:15:04.482966,2.7,0.207,-0.51,1.983,2.032,1.601,0.0,7140.73,2.01,235.6,230.3,233.8,0.536,49.99,6151.39,855.36,76.0,2.039,0.73,3.39,0.0,0.002,0.001,0.03,8.92125
2022-09-03T08:17:04.573324,2.793,0.212,-0.535,2.046,2.1,1.601,0.0,7140.73,2.01,234.8,231.1,233.3,0.489,49.97,6151.39,855.36,76.0,2.1,0.81,3.39,0.0,0.001,0.001,0.03,8.92125
2022-09-03T08:19:04.260255,2.863,0.275,-0.483,2.105,2.145,1.601,0.0,7140.73,2.01,236.8,230.1,234.1,0.554,49.97,6151.41,855.36,76.0,2.145,0.81,3.39,0.0,0.001,0.001,0.03,8.9225
2022-09-03T08:21:05.406270,2.944,0.226,-0.556,2.162,2.211,1.601,0.0,7140.73,2.01,236.6,233.6,231.1,0.566,49.97,6151.43,855.36,76.0,2.211,0.9,3.39,0.0,0.001,0.001,0.029,8.92375
2022-09-03T08:23:03.605675,3.012,0.209,-0.573,2.23,2.26,1.601,0.0,7140.73,2.01,239.3,235.8,235.1,0.586,50.0,6151.45,855.36,77.0,2.259,1.0,3.39,0.0,0.001,0.001,0.03,8.925
2022-09-03T08:25:03.900583,3.109,0.253,-0.568,2.288,2.308,1.601,0.0,7140.73,2.01,237.1,234.8,232.6,0.576,50.0,6151.47,855.36,77.0,2.308,1.0,3.39,0.0,0.001,0.001,0.029,8.92625
2022-09-03T08:27:04.185065,3.165,0.637,-0.202,2.326,2.363,1.601,0.0,7140.73,2.01,238.3,234.0,232.1,0.114,50.0,6151.49,855.36,77.0,2.363,1.1,3.39,0.0,0.001,0.001,0.029,8.92625
2022-09-03T08:29:04.856529,3.227,0.724,-0.128,2.375,2.413,1.601,0.0,7140.73,2.01,238.5,234.3,230.0,0.173,50.0,6151.49,855.36,77.0,2.413,1.22,3.39,0.0,0.002,0.001,0.029,8.9275
2022-09-03T08:31:04.695675,3.33,0.701,-0.185,2.444,2.463,1.601,0.0,7140.73,2.01,239.6,233.8,233.3,0.189,50.0,6151.5,855.36,77.0,2.463,1.22,3.39,0.0,0.001,0.001,0.03,8.92875
2022-09-03T08:33:05.179535,3.381,0.602,-0.292,2.487,2.505,1.601,0.0,7140.73,2.01,239.1,233.6,234.8,0.671,50.0,6151.5,855.36,78.0,2.504,1.32,3.39,0.0,0.002,0.001,0.03,8.93
2022-09-03T08:35:08.416970,3.428,0.225,-0.683,2.52,,,,,,,,,,,,,,,,,,0.001,0.001,0.03,8.93125
2022-09-03T08:37:04.493625,3.49,0.219,-0.702,2.569,2.585,1.601,0.0,7140.73,2.01,237.6,232.1,234.0,0.738,50.0,6151.54,855.36,78.0,2.585,1.54,3.39,0.0,0.001,0.001,0.03,8.93125
2022-09-03T08:39:03.538934,3.557,0.186,-0.751,2.62,2.643,1.601,0.0,7140.73,2.01,237.8,232.6,234.3,0.759,50.0,6151.58,855.36,78.0,2.643,1.54,3.39,0.0,0.002,0.001,0.03,8.9325
2022-09-03T08:41:06.617676,3.643,0.175,-0.777,2.691,2.687,1.601,0.0,7140.73,2.01,237.6,233.1,233.3,0.779,49.97,6151.6,855.36,79.0,2.699,1.64,3.39,0.0,0.001,0.001,0.03,8.93375
2022-09-03T08:43:03.270434,3.716,0.255,-0.744,2.717,2.73,1.601,0.0,7140.73,2.01,237.3,233.5,233.8,0.586,49.99,6151.62,855.36,79.0,2.73,1.75,3.39,0.0,0.002,0.001,0.029,8.935
2022-09-03T08:45:08.476377,3.756,0.361,-0.634,2.761,,,,,,,,,,,,,,,,,,0.001,0.001,0.03,8.93625
2022-09-03T08:47:02.762556,3.833,0.442,-0.571,2.82,2.814,1.601,0.0,7140.73,2.01,237.0,233.8,233.3,0.574,50.0,6151.66,855.36,79.0,2.815,1.89,3.39,0.0,0.002,0.002,0.029,8.93625
2022-09-03T08:49:03.260771,3.896,0.283,-0.748,2.865,2.872,1.601,0.0,7140.73,2.01,236.6,232.1,232.1,0.723,49.99,6151.68,855.36,80.0,2.872,2.01,3.39,0.0,0.001,0.001,0.029,8.93875
2022-09-03T08:51:08.229978,,,,,2.925,1.601,0.0,7140.73,2.01,241.1,235.8,235.5,0.755,50.0,6151.72,855.36,80.0,2.926,2.01,3.39,0.0,0.002,0.002,0.03,8.94125
2022-09-03T08:53:04.810958,3.958,2.202,0.0,1.756,2.967,1.601,0.0,7140.75,2.03,240.3,235.6,233.8,0.777,49.99,6151.72,855.36,80.0,2.973,2.21,3.39,0.0,0.002,0.001,0.03,8.9425
2022-09-03T08:55:08.358999,4.082,0.296,-0.794,2.992,,,,,,,,,,,,,,,,,,0.001,0.001,0.03,8.94375
2022-09-03T08:57:04.148236,4.115,0.341,-0.743,3.031,3.057,1.601,0.0,7140.75,2.03,242.0,237.3,234.8,0.899,50.0,6151.77,855.36,81.0,3.058,2.34,3.39,0.0,0.001,0.001,0.03,8.945
2022-09-03T08:59:05.097273,4.181,0.272,-0.834,3.075,3.107,1.601,0.0,7140.75,2.03,242.3,235.6,236.8,0.916,50.0,6151.81,855.36,81.0,3.104,2.46,3.39,0.0,0.001,0.001,0.03,8.945
2022-09-03T09:01:08.831397,,,,,3.146,1.601,0.0,7140.75,2.03,241.1,236.8,236.1,0.792,50.0,6151.83,855.36,81.0,3.158,2.46,3.39,0.0,0.001,0.001,0.03,8.94625
2022-09-03T09:03:03.334824,4.329,0.23,-0.911,3.188,3.194,1.601,0.0,7140.75,2.03,240.3,238.0,236.1,0.919,49.93,6151.87,855.36,82.0,3.194,2.6,3.39,0.0,0.001,0.001,0.03,8.9475
2022-09-03T09:05:03.137856,4.401,0.23,-0.922,3.249,3.249,1.601,0.0,7140.75,2.03,242.5,236.3,236.8,0.929,49.97,6151.89,855.36,82.0,3.25,2.76,3.39,0.0,0.001,0.001,0.03,8.94875
2022-09-03T09:07:03.935189,4.401,0.23,-0.922,3.249,3.307,1.601,0.0,7140.75,2.03,241.3,236.8,237.8,0.73,49.97,6151.93,855.36,82.0,3.303,2.76,3.39,0.0,0.002,0.001,0.031,8.95
2022-09-03T09:09:03.249688,4.49,0.456,-0.727,3.307,3.364,1.601,0.0,7140.75,2.03,240.6,236.6,237.6,0.877,50.0,6151.95,855.36,83.0,3.364,2.9,3.39,0.0,0.001,0.001,0.03,8.95
2022-09-03T09:11:04.385187,4.633,0.232,-0.985,3.416,3.416,1.601,0.0,7140.75,2.03,240.6,239.3,235.3,0.853,49.99,6151.97,855.36,83.0,3.416,3.06,3.39,0.0,0.001,0.001,0.03,8.95125
2022-09-03T09:13:04.312250,4.633,0.232,-0.985,3.416,3.281,1.601,0.0,7140.75,2.03,240.1,238.6,235.8,0.13,50.02,6152.0,855.36,83.0,3.281,3.06,3.39,0.0,0.002,0.002,0.03,8.9525
2022-09-03T09:15:03.475949,4.6,0.361,-0.829,3.41,3.379,1.601,0.0,7140.75,2.03,240.6,239.1,234.8,0.233,49.97,6152.02,855.36,83.0,3.379,3.22,3.39,0.0,0.002,0.001,0.03,8.95375
2022-09-03T09:17:03.290158,4.563,0.955,-0.243,3.365,3.232,1.601,0.0,7140.75,2.03,241.6,238.3,233.0,0.052,50.02,6152.02,855.36,84.0,3.232,3.35,3.39,0.0,0.002,0.001,0.029,8.955
2022-09-03T09:19:04.689905,4.466,0.968,-0.197,3.301,3.283,1.601,0.0,7140.75,2.03,241.8,236.8,234.1,0.179,50.0,6152.02,855.36,84.0,3.283,3.48,3.39,0.0,0.002,0.001,0.03,8.955
2022-09-03T09:21:08.079954,,,,,3.326,1.601,0.0,7140.75,2.03,242.3,236.3,233.5,0.08,50.0,6152.02,855.36,84.0,3.328,3.48,3.39,0.0,0.001,0.002,0.029,8.95625
2022-09-03T09:23:03.656466,4.326,1.08,-0.052,3.194,3.589,1.601,0.0,7140.75,2.03,240.8,236.6,230.0,0.213,50.0,6152.02,855.36,84.0,3.607,3.62,3.39,0.0,0.002,0.001,0.029,8.9575
2022-09-03T09:25:08.880370,5.026,1.119,-0.192,3.715,,,,,,,,,,,,,,,,,,0.002,0.001,0.029,8.96
2022-09-03T09:27:05.761629,5.084,1.067,-0.26,3.757,3.617,1.601,0.0,7140.75,2.03,245.8,238.0,236.5,0.948,50.0,6152.06,855.36,85.0,3.656,3.78,3.39,0.0,0.002,0.001,0.03,8.96125
2022-09-03T09:29:03.461498,5.084,1.067,-0.26,3.757,3.713,1.601,0.0,7140.75,2.03,240.8,234.8,233.0,0.759,50.0,6152.08,855.36,85.0,3.713,3.96,3.39,0.0,0.002,0.002,0.029,8.96125
2022-09-03T09:31:04.351149,5.073,0.49,-0.837,3.746,3.716,1.601,0.0,7140.75,2.03,240.3,237.1,231.3,0.368,49.99,6152.12,855.36,86.0,3.716,4.14,3.39,0.0,0.002,0.001,0.029,8.96375
2022-09-03T09:33:04.137743,5.08,0.336,-0.986,3.758,3.824,1.601,0.0,7140.75,2.03,240.3,234.8,232.8,0.408,50.0,6152.12,855.36,86.0,3.818,4.14,3.39,0.0,0.002,0.001,0.029,8.965
2022-09-03T09:35:03.884489,5.207,0.936,-0.418,3.853,3.969,1.601,0.0,7140.75,2.03,240.3,236.3,228.8,0.466,49.99,6152.14,855.36,87.0,3.974,4.32,3.39,0.0,0.001,0.001,0.028,8.96625
2022-09-03T09:37:04.165161,5.37,0.926,-0.47,3.974,3.852,1.601,0.0,7140.75,2.03,245.3,238.1,233.3,1.125,50.0,6152.16,855.36,87.0,3.853,4.44,3.39,0.0,0.001,0.001,0.03,8.9675
2022-09-03T09:39:03.890333,5.292,0.949,-0.431,3.912,3.701,1.601,0.0,7140.75,2.03,242.3,236.8,234.1,0.364,50.02,6152.16,855.36,88.0,3.701,4.62,3.39,0.0,0.002,0.001,0.029,8.9675
2022-09-03T09:41:03.677650,5.067,0.958,-0.355,3.754,3.522,1.601,0.0,7140.75,2.03,242.1,235.1,236.3,0.293,50.02,6152.18,855.36,88.0,3.522,4.62,3.39,0.0,0.002,0.001,0.03,8.96875
2022-09-03T09:43:06.166852,4.767,0.924,-0.306,3.537,3.273,1.601,0.0,7140.75,2.03,242.1,237.5,229.1,0.205,50.02,6152.2,855.36,88.0,3.237,4.79,3.39,0.0,0.002,0.002,0.029,8.97
2022-09-03T09:45:02.831377,4.454,1.045,-0.113,3.296,3.061,1.601,0.0,7140.75,2.03,239.1,236.3,232.3,0.05,50.0,6152.2,855.36,88.0,3.039,4.95,3.39,0.0,0.002,0.001,0.029,8.97125
2022-09-03T09:47:03.409591,4.454,1.045,-0.113,3.296,3.466,1.601,0.0,7140.75,2.03,241.6,238.1,234.6,0.193,50.0,6152.2,855.36,89.0,3.471,4.95,3.39,0.0,0.002,0.001,0.03,8.9725
2022-09-03T09:49:03.380386,4.728,1.034,-0.2,3.494,3.047,1.601,0.0,7140.75,2.03,243.1,238.0,235.1,0.801,50.02,6152.22,855.36,89.0,3.047,5.1,3.39,0.0,0.001,0.001,0.03,8.9725
2022-09-03T09:51:06.038351,4.672,0.322,-0.906,3.444,3.388,1.601,0.0,7140.75,2.03,242.8,236.8,235.6,1.05,50.0,6152.25,855.36,89.0,3.432,5.26,3.39,0.0,0.002,0.001,0.03,8.97375
2022-09-03T09:53:03.752587,5.045,0.19,-1.128,3.727,3.469,1.601,0.0,7140.75,2.03,237.3,238.3,232.8,1.035,50.02,6152.29,855.36,90.0,3.469,5.26,3.39,0.0,0.001,0.001,0.03,8.975
2022-09-03T09:55:03.756393,4.852,0.193,-1.084,3.575,3.45,1.601,0.0,7140.75,2.03,237.0,239.0,232.8,1.01,50.0,6152.33,855.36,90.0,3.432,5.37,3.39,0.0,0.001,0.001,0.029,8.97625
2022-09-03T09:57:04.002800,4.642,0.188,-1.02,3.434,3.71,1.601,0.0,7140.75,2.03,238.3,238.3,233.6,1.142,50.02,6152.35,855.36,90.0,3.758,5.52,3.39,0.0,0.002,0.001,0.03,8.9775
2022-09-03T09:59:03.434124,5.462,0.934,-0.484,4.044,4.136,1.601,0.0,7140.75,2.03,238.1,236.8,236.8,0.524,50.0,6152.37,855.36,91.0,4.136,5.52,3.39,0.0,0.001,0.001,0.03,8.9775
2022-09-03T10:01:03.691505,5.559,0.916,-0.522,4.121,4.003,1.601,0.0,7140.75,2.03,237.3,237.3,235.1,0.518,49.97,6152.39,855.36,91.0,4.003,5.7,3.39,0.0,0.002,0.001,0.03,8.98
2022-09-03T10:03:04.284175,5.416,0.885,-0.523,4.008,3.974,1.601,0.0,7140.75,2.03,237.6,237.8,238.0,0.418,49.97,6152.41,855.36,91.0,3.974,5.88,3.39,0.0,0.002,0.001,0.03,8.98125
2022-09-03T10:05:03.324298,5.416,0.885,-0.523,4.008,4.244,1.601,0.0,7140.75,2.03,243.6,237.5,235.3,1.194,49.95,6152.43,855.36,92.0,4.241,6.07,3.39,0.0,0.001,0.001,0.03,8.9825
2022-09-03T10:07:04.180489,5.696,0.983,-0.483,4.23,4.281,1.601,0.0,7140.75,2.03,242.1,236.8,235.8,1.283,49.97,6152.47,855.36,92.0,4.29,6.07,3.39,0.0,0.001,0.001,0.03,8.98375
2022-09-03T10:09:03.649666,5.793,0.22,-1.275,4.298,4.293,1.601,0.0,7140.75,2.03,242.3,237.1,234.5,1.36,49.97,6152.52,855.36,93.0,4.293,6.28,3.39,0.0,0.001,0.001,0.03,8.985
2022-09-03T10:11:04.674033,5.822,0.234,-1.281,4.307,4.303,1.601,0.536,7140.75,2.03,242.5,239.3,233.3,1.942,49.97,6152.56,855.36,93.0,3.767,6.48,3.39,0.0,0.001,0.001,0.03,8.98625
2022-09-03T10:13:03.320032,5.791,0.131,-1.366,4.294,4.354,1.601,0.0,7140.76,2.04,238.8,238.8,234.8,1.388,49.97,6152.62,855.36,93.0,4.356,6.48,3.39,0.0,0.001,0.002,0.03,8.9875
2022-09-03T10:15:08.887344,5.842,0.119,-1.382,4.341,,,,,,,,,,,,,,,,,,0.001,0.001,0.03,8.98875
2022-09-03T10:17:04.629390,5.868,0.125,-1.386,4.357,4.372,1.601,0.0,7140.76,2.04,241.6,238.8,237.5,1.39,50.0,6152.72,855.36,95.0,4.374,6.78,3.39,0.0,0.001,0.002,0.03,8.99
2022-09-03T10:19:04.005970,5.92,0.129,-1.392,4.399,4.416,1.601,0.0,7140.76,2.04,241.8,238.0,237.6,1.397,50.0,6152.75,855.36,95.0,4.416,6.78,3.39,0.0,0.001,0.001,0.031,8.99125
2022-09-03T10:21:03.366672,5.812,0.151,-5.661,0.0,4.312,4.332,4.312,7140.85,2.13,245.0,239.6,237.6,5.69,50.02,6152.91,855.36,95.0,0.0,6.99,3.39,0.0,0.001,0.001,0.03,8.99125
2022-09-03T10:23:05.332677,5.759,0.27,-5.489,0.0,4.273,4.332,4.273,7141.0,2.28,243.8,237.3,238.6,5.562,50.0,6153.08,855.36,95.0,0.0,7.13,3.39,0.0,0.001,0.002,0.031,8.9925
2022-09-03T10:25:03.489053,5.891,0.243,-5.648,0.0,4.347,4.35,4.347,7141.14,2.42,243.8,237.5,238.6,5.641,49.99,6153.27,855.36,95.0,0.0,7.13,3.39,0.0,0.002,0.002,0.03,8.99375
2022-09-03T10:27:03.525155,5.951,0.24,-5.711,0.0,4.38,4.402,4.38,7141.29,2.57,244.8,238.8,238.3,5.795,50.02,6153.47,855.36,95.0,0.0,7.13,3.39,0.0,0.001,0.001,0.031,8.995
2022-09-03T10:29:04.105686,5.986,0.14,-5.846,0.0,4.427,4.435,4.427,7141.44,2.72,245.3,238.5,239.6,5.843,50.02,6153.66,855.36,95.0,0.0,7.13,3.39,0.0,0.002,0.001,0.03,8.99625
2022-09-03T10:31:04.658366,6.014,0.152,-5.862,0.0,4.451,4.453,4.451,7141.58,2.86,246.6,238.3,239.3,5.858,49.99,6153.85,855.36,95.0,0.0,7.13,3.39,0.0,0.002,0.002,0.031,8.9975
2022-09-03T10:33:03.370017,6.053,0.167,-5.886,0.0,4.479,4.486,4.479,7141.73,3.01,246.6,240.3,238.8,5.908,50.0,6154.04,855.36,95.0,0.0,7.13,3.39,0.0,0.001,0.001,0.03,8.9975
2022-09-03T10:35:08.238300,6.151,0.128,-6.023,0.0,,,,,,,,,,,,,,,,,,0.002,0.001,0.03,8.99875
2022-09-03T10:37:02.929837,6.117,0.148,-5.969,0.0,4.521,4.594,4.521,7142.02,3.3,246.3,239.3,236.8,5.958,50.0,6154.43,855.36,95.0,0.0,7.13,3.39,0.0,0.001,0.002,0.03,9.0
2022-09-03T10:39:04.552841,6.094,0.149,-5.945,0.0,4.522,4.594,4.522,7142.17,3.45,246.6,239.6,236.6,5.956,49.99,6154.64,855.36,95.0,0.0,7.13,3.39,0.0,0.001,0.002,0.03,9.00125
2022-09-03T10:41:07.790453,,,,,4.534,4.594,4.534,7142.33,3.61,246.8,237.8,239.1,5.887,50.0,6154.83,855.36,95.0,0.0,7.13,3.39,0.0,0.001,0.001,0.03,9.00375
2022-09-03T10:43:05.740194,6.153,0.243,-5.91,0.0,4.564,4.594,4.564,7142.48,3.76,246.8,239.1,238.8,5.918,50.02,6155.02,855.36,95.0,0.0,7.13,3.39,0.0,0.002,0.002,0.031,9.00375
2022-09-03T10:45:07.695969,6.204,0.249,-5.955,0.0,,,,,,,,,,,,,,,,,,0.002,0.001,0.03,9.005
2022-09-03T10:47:04.603193,6.21,0.151,-6.059,0.0,4.613,4.613,4.613,7142.79,4.06,248.5,236.8,238.1,6.073,50.0,6155.43,855.36,95.0,0.0,7.13,3.39,0.0,0.002,0.001,0.03,9.00625
2022-09-03T10:49:03.444181,6.277,0.159,-6.118,0.0,4.651,4.652,4.651,7142.94,4.22,247.6,237.6,238.1,6.13,50.0,6155.62,855.36,95.0,0.0,7.13,3.39,0.0,0.001,0.001,0.03,9.00875
2022-09-03T10:51:06.031673,6.305,0.152,-6.153,0.0,4.675,4.675,4.675,7143.09,4.37,249.3,238.3,237.1,6.149,50.0,6155.83,855.36,95.0,0.0,7.13,3.39,0.0,0.001,0.002,0.03,9.01
2022-09-03T10:53:03.965203,6.322,0.151,-6.171,0.0,4.698,4.699,4.698,7143.25,4.53,249.1,236.6,237.8,6.19,50.0,6156.04,855.36,95.0,0.0,7.13,3.39,0.0,0.002,0.001,0.031,9.01125
2022-09-03T10:55:07.892911,6.354,0.152,-6.202,0.0,,,,,,,,,,,,,,,,,,0.002,0.002,0.03,9.01125
2022-09-03T10:57:04.256606,6.391,0.152,-6.239,0.0,4.745,4.746,4.745,7143.56,4.84,249.5,240.5,236.1,6.244,50.0,6156.45,855.36,95.0,0.0,7.13,3.39,0.0,0.001,0.002,0.03,9.0125
2022-09-03T10:59:04.170426,6.422,0.162,-6.26,0.0,4.548,4.764,4.548,7143.72,5.0,248.5,239.8,235.6,6.056,50.0,6156.66,855.36,95.0,0.0,7.13,3.39,0.0,0.001,0.001,0.03,9.01375
2022-09-03T11:01:07.792077,,,,,4.831,4.832,4.831,7143.88,5.16,247.6,237.8,239.8,6.262,50.0,6156.87,855.36,95.0,0.0,7.13,3.39,0.0,0.001,0.002,0.031,9.015
2022-09-03T11:03:04.211794,6.572,0.241,-6.331,0.0,4.896,4.896,4.896,7144.04,5.32,247.1,237.3,239.3,6.358,49.97,6157.08,855.36,95.0,0.0,7.13,3.39,0.0,0.001,0.001,0.031,9.01625
2022-09-03T11:05:07.541970,6.642,0.156,-6.486,0.0,,,,,,,,,,,,,,,,,,0.001,0.001,0.031,9.0175
2022-09-03T11:07:03.364740,6.662,0.148,-6.514,0.0,4.967,4.97,4.967,7144.37,5.65,249.6,238.8,236.3,6.537,49.99,6157.5,855.36,95.0,0.0,7.13,3.39,0.0,0.001,0.001,0.03,9.0175
2022-09-03T11:09:04.665537,6.709,0.158,-6.551,0.0,4.959,4.984,4.959,7144.53,5.81,248.8,239.8,237.3,6.473,50.0,6157.72,855.36,95.0,0.0,7.13,3.39,0.0,0.001,0.001,0.03,9.01875
2022-09-03T11:11:05.563860,6.557,0.114,-6.443,0.0,4.794,4.984,4.794,7144.7,5.98,247.5,240.8,235.8,6.304,50.0,6157.95,855.36,95.0,0.0,7.13,3.39,0.0,0.002,0.002,0.03,9.02
2022-09-03T11:13:03.121768,6.296,0.114,-6.182,0.0,4.915,4.984,4.915,7144.86,6.14,247.3,240.3,235.6,6.507,50.0,6158.16,855.36,95.0,0.0,7.13,3.39,0.0,0.001,0.001,0.03,9.02125
2022-09-03T11:15:08.241495,6.681,0.155,-6.526,0.0,,,,,,,,,,,,,,,,,,0.001,0.002,0.03,9.0225
2022-09-03T11:17:02.916012,6.808,0.15,-6.658,0.0,5.08,5.109,5.08,7145.19,6.47,249.5,242.6,235.0,6.734,50.02,6158.58,855.36,95.0,0.0,7.13,3.39,0.0,0.001,0.001,0.03,9.0225
2022-09-03T11:19:03.736034,6.977,0.125,-6.852,0.0,5.09,5.242,5.09,7145.36,6.64,245.5,240.6,237.3,6.523,49.97,6158.81,855.36,95.0,0.0,7.13,3.39,0.0,0.001,0.001,0.03,9.025
2022-09-03T11:21:04.012605,6.346,0.248,-6.098,0.0,4.67,5.242,4.67,7145.52,6.8,246.5,239.6,236.8,6.098,49.99,6159.02,855.36,95.0,0.0,7.13,3.39,0.0,0.001,0.001,0.03,9.02625
2022-09-03T11:23:04.556672,6.244,0.164,-6.08,0.0,4.602,5.242,4.602,7145.68,6.96,246.6,241.0,237.8,5.932,49.97,6159.22,855.36,95.0,0.0,7.13,3.39,0.0,0.001,0.002,0.03,9.0275
2022-09-03T11:25:07.813224,6.415,0.141,-6.274,0.0,,,,,,,,,,,,,,,,,,0.002,0.002,0.03,9.02875
2022-09-03T11:27:03.112460,7.072,0.115,-6.957,0.0,5.164,5.27,5.164,7146.0,7.28,250.3,239.3,238.5,6.797,49.99,6159.66,855.36,95.0,0.0,7.13,3.39,0.0,0.001,0.001,0.03,9.03125
2022-09-03T11:29:03.954290,6.839,0.129,-6.71,0.0,4.965,5.27,4.965,7146.17,7.45,249.8,238.6,237.6,6.546,50.0,6159.87,855.36,95.0,0.0,7.13,3.39,0.0,0.001,0.001,0.03,9.03125
2022-09-03T11:31:07.811306,,,,,4.853,5.27,4.853,7146.33,7.61,249.6,237.1,240.1,5.564,50.0,6160.08,855.36,95.0,0.0,7.14,3.39,0.0,0.002,0.002,0.031,9.0325
2022-09-03T11:33:05.087921,6.347,1.0,-5.347,0.0,4.759,5.27,4.759,7146.48,7.76,250.0,238.6,239.6,5.411,50.0,6160.25,855.36,95.0,0.0,7.14,3.39,0.0,0.002,0.002,0.031,9.03375
2022-09-03T11:35:06.712298,6.717,0.851,-5.866,0.0,4.953,5.27,4.953,7146.65,7.92,250.0,238.8,239.8,5.77,49.97,6160.45,855.36,95.0,0.0,7.14,3.39,0.0,0.002,0.002,0.031,9.035
2022-09-03T11:37:04.590789,6.616,0.846,-5.77,0.0,4.931,5.27,4.931,7146.81,8.09,246.5,240.3,238.3,5.807,49.97,6160.64,855.36,95.0,0.0,7.14,3.39,0.0,0.002,0.002,0.031,9.03625
2022-09-03T11:39:04.219677,6.634,0.94,-5.694,0.0,4.903,5.27,4.903,7146.97,8.25,248.6,238.3,239.3,5.697,50.0,6160.81,855.36,95.0,0.0,7.14,3.39,0.0,0.002,0.002,0.031,9.0375
2022-09-03T11:41:04.102446,6.488,0.921,-5.567,0.0,4.889,5.27,4.889,7147.14,8.42,248.3,238.1,238.1,5.626,49.97,6161.02,855.36,95.0,0.0,7.14,3.39,0.0,0.002,0.002,0.031,9.0375
2022-09-03T11:43:03.848829,6.785,0.849,-5.936,0.0,4.648,5.27,4.648,7147.3,8.58,248.3,237.1,238.3,5.271,50.0,6161.2,855.36,95.0,0.0,7.14,3.39,0.0,0.002,0.002,0.03,9.03875
2022-09-03T11:45:02.672001,6.459,0.891,-5.568,0.0,4.852,5.27,4.852,7147.45,8.72,247.6,238.5,239.3,5.662,50.0,6161.37,855.36,95.0,0.0,7.14,3.39,0.0,0.002,0.002,0.031,9.04
2022-09-03T11:47:03.001525,6.626,0.866,-5.76,0.0,4.973,5.27,4.973,7147.61,8.89,247.1,237.3,240.3,5.778,49.99,6161.56,855.36,95.0,0.0,7.14,3.39,0.0,0.002,0.002,0.031,9.04125
2022-09-03T11:49:05.308053,6.26,0.755,-5.505,0.0,4.489,5.27,4.489,7147.76,9.04,247.8,236.0,238.1,5.248,50.0,6161.75,855.36,95.0,0.0,7.14,3.39,0.0,0.002,0.002,0.031,9.0425
2022-09-03T11:51:05.222502,6.49,0.703,-5.787,0.0,5.008,5.27,5.008,7147.93,9.21,248.8,238.6,240.1,5.908,49.99,6161.93,855.36,95.0,0.0,7.14,3.39,0.0,0.002,0.002,0.031,9.0425
2022-09-03T11:53:05.617001,7.147,0.927,-6.22,0.0,5.358,5.415,5.358,7148.1,9.38,247.1,238.3,240.8,6.329,50.0,6162.14,855.36,95.0,0.0,7.15,3.39,0.0,0.002,0.002,0.031,9.04375
2022-09-03T11:55:07.703282,6.898,0.868,-6.03,0.0,,,,,,,,,,,,,,,,,,0.002,0.002,0.03,9.04625
2022-09-03T11:57:03.075499,5.088,1.061,-4.027,0.0,3.65,5.415,3.65,7148.4,9.68,243.6,236.6,240.6,4.106,50.02,6162.47,855.36,95.0,0.0,7.15,3.39,0.0,0.002,0.002,0.031,9.0475
2022-09-03T11:59:04.914222,4.83,0.242,-4.588,0.0,3.484,5.415,3.484,7148.52,9.8,244.6,239.8,238.1,4.494,50.02,6162.64,855.36,95.0,0.0,7.15,3.39,0.0,0.001,0.001,0.03,9.04875
2022-09-03T12:01:08.495955,,,,,4.593,5.415,4.593,7148.66,9.94,245.8,241.6,238.1,5.573,50.0,6162.81,855.36,95.0,0.0,7.15,3.39,0.0,0.001,0.002,0.031,9.05125
2022-09-03T12:03:03.554553,6.473,0.136,-6.337,0.0,4.863,5.415,4.863,7148.81,10.09,248.8,242.1,239.6,6.413,50.0,6163.0,855.36,95.0,0.0,7.15,3.39,0.0,0.002,0.002,0.031,9.05125
2022-09-03T12:05:08.554862,4.642,0.112,-4.53,0.0,,,,,,,,,,,,,,,,,,0.001,0.002,0.031,9.0525
2022-09-03T12:07:04.156982,5.718,0.13,-5.588,0.0,4.709,5.415,4.709,7149.05,10.33,247.8,238.8,241.8,6.467,50.0,6163.33,855.36,95.0,0.0,7.15,3.39,0.0,0.001,0.002,0.031,9.05375
2022-09-03T12:09:04.496837,6.289,0.0,-6.289,0.0,4.76,5.415,4.76,7149.21,10.49,248.6,239.8,241.3,6.462,50.0,6163.52,855.36,95.0,0.0,7.15,3.39,0.0,0.001,0.001,0.031,9.055
2022-09-03T12:11:03.476479,7.04,0.176,-6.864,0.0,4.881,5.415,4.881,7149.38,10.66,248.3,241.6,240.3,6.708,50.0,6163.75,855.36,95.0,0.0,7.15,3.39,0.0,0.001,0.002,0.031,9.05625
2022-09-03T12:13:04.302469,7.4,1.706,-5.694,0.0,5.456,5.573,5.456,7149.56,10.84,252.1,243.8,237.3,5.653,50.02,6163.95,855.36,95.0,0.0,7.15,3.39,0.0,0.002,0.001,0.031,9.0575
2022-09-03T12:15:07.805099,7.497,1.682,-5.815,0.0,,,,,,,,,,,,,,,,,,0.002,0.001,0.03,9.05875
2022-09-03T12:17:04.598748,7.416,1.827,-5.589,0.0,5.523,5.6,5.523,7149.93,11.21,250.1,247.8,237.8,5.586,50.0,6164.33,855.36,95.0,0.0,7.15,3.39,0.0,0.002,0.001,0.03,9.05875
2022-09-03T12:19:03.322564,7.403,1.824,-5.579,0.0,5.508,5.6,5.508,7150.11,11.39,249.6,246.6,237.8,5.558,50.0,6164.52,855.36,95.0,0.0,7.15,3.39,0.0,0.002,0.001,0.031,9.06
2022-09-03T12:21:06.102546,7.193,1.719,-5.474,0.0,5.379,5.6,5.379,7150.29,11.57,248.5,246.6,237.8,5.511,50.02,6164.7,855.36,95.0,0.0,7.15,3.39,0.0,0.002,0.001,0.031,9.06125
2022-09-03T12:23:03.804328,7.162,1.761,-5.401,0.0,5.346,5.6,5.346,7150.48,11.76,247.6,243.3,235.5,5.414,49.97,6164.89,855.36,95.0,0.0,7.15,3.39,0.0,0.002,0.001,0.03,9.0625
2022-09-03T12:25:07.676024,7.064,2.785,-4.279,0.0,,,,,,,,,,,,,,,,,,0.002,0.001,0.03,9.06375
2022-09-03T12:27:03.856008,6.903,1.894,-5.009,0.0,5.171,5.6,5.171,7150.82,12.1,252.1,243.3,236.6,5.077,49.99,6165.2,855.36,95.0,0.0,7.15,3.39,0.0,0.002,0.001,0.03,9.06375
2022-09-03T12:29:05.129955,6.726,1.841,-4.885,0.0,5.019,5.6,5.019,7150.99,12.27,251.8,241.1,236.6,4.944,50.0,6165.37,855.36,95.0,0.0,7.15,3.39,0.0,0.002,0.001,0.03,9.06625
2022-09-03T12:31:04.550604,6.956,1.844,-5.112,0.0,5.281,5.6,5.281,7151.16,12.44,252.6,242.3,236.8,5.233,49.95,6165.54,855.36,95.0,0.0,7.15,3.39,0.0,0.002,0.001,0.031,9.0675
2022-09-03T12:33:04.872773,7.303,1.893,-5.41,0.0,5.426,5.6,5.426,7151.33,12.61,252.6,241.6,236.6,5.37,49.97,6165.7,855.36,95.0,0.0,7.15,3.39,0.0,0.002,0.001,0.03,9.06875
2022-09-03T12:35:03.110652,6.95,3.692,-3.258,0.0,3.721,5.6,3.721,7151.5,12.78,245.8,242.8,233.6,3.843,49.97,6165.85,855.36,95.0,0.0,7.15,3.39,0.0,0.002,0.001,0.03,9.07
2022-09-03T12:37:05.631423,7.057,2.268,-4.789,0.0,4.528,5.6,4.528,7151.66,12.93,245.8,243.3,234.6,4.028,50.0,6166.0,855.36,95.0,0.0,7.15,3.39,0.0,0.002,0.001,0.03,9.07125
2022-09-03T12:39:03.276142,5.706,1.774,-3.932,0.0,5.23,5.6,5.23,7151.8,13.08,245.6,244.8,235.5,5.198,49.97,6166.12,855.36,95.0,0.0,7.15,3.39,0.0,0.002,0.001,0.03,9.07125
2022-09-03T12:41:04.931407,4.798,0.282,-4.516,0.0,3.803,5.6,3.803,7151.96,13.24,241.6,239.6,238.0,5.025,50.0,6166.29,855.36,95.0,0.0,7.15,3.39,0.0,0.001,0.002,0.03,9.07375
2022-09-03T12:43:02.618845,5.614,0.316,-5.298,0.0,5.021,5.6,5.021,7152.1,13.38,243.6,241.6,242.0,6.075,50.02,6166.49,855.36,95.0,0.0,7.15,3.39,0.0,0.002,0.001,0.031,9.075
2022-09-03T12:45:08.962678,7.157,0.371,-6.786,0.0,,,,,,,,,,,,,,,,,,0.002,0.001,0.031,9.07625
2022-09-03T12:47:04.633241,7.8,0.547,-7.253,0.0,3.409,6.001,3.409,7152.47,13.75,246.1,240.8,242.3,4.73,49.99,6166.97,855.36,95.0,0.0,7.15,3.39,0.0,0.001,0.002,0.031,9.0775
2022-09-03T12:49:04.543801,5.176,0.284,-4.892,0.0,2.725,6.186,2.725,7152.61,13.89,240.0,239.8,238.1,3.502,50.0,6167.16,855.36,95.0,0.0,7.15,3.39,0.0,0.001,0.002,0.031,9.07875
2022-09-03T12:51:06.055761,4.069,0.042,-4.027,0.0,2.773,6.186,2.773,7152.71,13.99,240.6,241.5,238.3,3.763,49.99,6167.29,855.36,95.0,0.0,7.15,3.39,0.0,0.001,0.001,0.03,9.07875
2022-09-03T12:53:03.561775,5.062,0.228,-4.834,0.0,3.058,6.186,3.058,7152.82,14.1,243.6,239.0,238.1,4.097,49.99,6167.43,855.36,95.0,0.0,7.15,3.39,0.0,0.001,0.001,0.031,9.08
2022-09-03T12:55:08.207311,3.885,0.237,-3.648,0.0,,,,,,,,,,,,,,,,,,0.002,0.002,0.03,9.08125
2022-09-03T12:57:04.262830,5.35,0.373,-4.977,0.0,4.54,6.186,4.54,7153.04,14.32,250.1,242.3,241.8,5.926,50.0,6167.72,855.36,95.0,0.0,7.15,3.39,0.0,0.002,0.002,0.031,9.0825
2022-09-03T12:59:04.108088,7.565,0.275,-7.29,0.0,5.897,6.186,5.897,7153.23,14.51,252.8,243.6,242.1,7.717,49.99,6167.95,855.36,95.0,0.0,7.15,3.39,0.0,0.001,0.002,0.031,9.08375
2022-09-03T13:01:05.001399,7.63,0.296,-7.334,0.0,5.622,6.186,5.622,7153.42,14.7,250.8,243.5,241.8,7.172,49.97,6168.2,855.36,95.0,0.0,7.15,3.39,0.0,0.001,0.002,0.031,9.085
2022-09-03T13:03:03.563270,6.89,0.534,-6.356,0.0,4.729,6.186,4.729,7153.59,14.87,244.8,242.3,240.1,5.837,49.97,6168.41,855.36,95.0,0.0,7.15,3.39,0.0,0.001,0.002,0.031,9.08625
2022-09-03T13:05:08.916026,7.272,0.777,-6.495,0.0,,,,,,,,,,,,,,,,,,0.002,0.002,0.031,9.0875
2022-09-03T13:07:04.018145,7.321,0.72,-6.601,0.0,5.454,6.186,5.454,7153.95,15.23,246.8,244.3,240.5,6.605,50.0,6168.85,855.36,95.0,0.0,7.16,3.39,0.0,0.002,0.001,0.031,9.08875
2022-09-03T13:09:03.609761,2.876,0.534,-2.342,0.0,2.657,6.186,2.657,7154.07,15.34,241.6,242.3,240.3,3.6,50.0,6168.97,855.36,95.0,0.0,7.16,3.39,0.0,0.002,0.002,0.031,9.09
2022-09-03T13:11:04.545527,5.47,0.346,-5.124,0.0,3.915,6.186,3.915,7154.2,15.48,244.1,242.3,240.3,4.848,50.0,6169.16,855.36,95.0,0.0,7.16,3.39,0.0,0.002,0.002,0.031,9.09125
2022-09-03T13:13:05.380310,6.936,0.541,-6.395,0.0,5.013,6.186,5.013,7154.36,15.64,242.8,243.1,241.3,5.67,50.02,6169.35,855.36,95.0,0.0,7.16,3.39,0.0,0.002,0.002,0.031,9.0925
2022-09-03T13:15:07.965904,6.828,0.886,-5.942,0.0,,,,,,,,,,,,,,,,,,0.002,0.002,0.031,9.09375
2022-09-03T13:17:03.607833,7.197,0.511,-6.686,0.0,5.292,6.186,5.292,7154.68,15.96,248.8,243.0,242.6,6.606,50.02,6169.75,855.36,95.0,0.0,7.17,3.39,0.0,0.002,0.002,0.031,9.09375
2022-09-03T13:19:03.917081,5.847,0.488,-5.359,0.0,4.033,6.186,4.033,7154.83,16.11,245.8,240.8,238.8,4.512,50.02,6169.95,855.36,95.0,0.0,7.17,3.39,0.0,0.001,0.002,0.031,9.09625
2022-09-03T13:21:04.090213,5.837,0.436,-5.401,0.0,4.308,6.186,4.308,7154.96,16.24,245.8,240.1,239.6,5.367,50.0,6170.1,855.36,95.0,0.0,7.17,3.39,0.0,0.002,0.002,0.031,9.0975
2022-09-03T13:23:03.903363,7.311,0.226,-7.085,0.0,5.535,6.186,5.535,7155.13,16.4,250.6,241.3,240.3,7.099,50.02,6170.33,855.36,95.0,0.0,7.17,3.39,0.0,0.002,0.002,0.031,9.09875
2022-09-03T13:25:03.551016,7.543,0.345,-7.198,0.0,5.604,6.186,5.604,7155.31,16.59,245.8,247.1,239.8,7.192,50.02,6170.56,855.36,95.0,0.0,7.17,3.39,0.0,0.002,0.002,0.031,9.1
2022-09-03T13:27:03.996069,7.007,0.508,-6.499,0.0,4.982,6.186,4.982,7155.5,16.78,244.6,242.3,239.8,6.334,50.0,6170.79,855.36,95.0,0.0,7.17,3.39,0.0,0.002,0.002,0.031,9.10125
2022-09-03T13:29:04.140573,6.722,0.448,-6.274,0.0,5.046,6.186,5.046,7155.66,16.93,243.1,241.8,239.3,6.291,50.0,6170.99,855.36,95.0,0.0,7.17,3.39,0.0,0.002,0.001,0.031,9.10125
2022-09-03T13:31:03.826095,5.589,0.598,-4.991,0.0,4.157,6.186,4.157,7155.81,17.09,239.8,241.1,238.1,4.929,50.02,6171.18,855.36,95.0,0.0,7.17,3.39,0.0,0.001,0.002,0.031,9.1025
2022-09-03T13:33:03.313356,7.064,0.711,-6.353,0.0,5.494,6.186,5.494,7155.96,17.23,244.3,243.6,242.3,6.765,49.99,6171.35,855.36,95.0,0.0,7.17,3.39,0.0,0.002,0.002,0.032,9.10375
2022-09-03T13:35:08.121731,4.026,0.711,-3.315,0.0,,,,,,,,,,,,,,,,,,0.001,0.002,0.031,9.105
2022-09-03T13:37:06.432247,3.188,0.474,-2.714,0.0,2.338,6.186,2.338,7156.23,17.51,239.1,237.6,237.1,2.791,50.0,6171.68,855.36,95.0,0.0,7.17,3.39,0.0,0.001,0.002,0.03,9.10625
2022-09-03T13:39:03.449812,3.088,0.507,-2.581,0.0,2.625,6.186,2.625,7156.32,17.6,238.8,237.5,238.1,3.013,49.97,6171.79,855.36,95.0,0.0,7.17,3.39,0.0,0.001,0.002,0.03,9.1075
2022-09-03T13:41:08.010082,,,,,3.268,6.186,3.268,7156.42,17.69,244.8,238.5,239.0,4.136,50.0,6171.91,855.36,95.0,0.0,7.17,3.39,0.0,0.002,0.002,0.031,9.10875
2022-09-03T13:43:04.186040,6.331,0.718,-5.613,0.0,3.349,6.186,3.349,7156.55,17.83,244.0,237.3,237.3,4.19,49.99,6172.06,855.36,95.0,0.0,7.17,3.39,0.0,0.001,0.002,0.031,9.11
2022-09-03T13:45:08.010541,4.355,0.37,-3.985,0.0,,,,,,,,,,,,,,,,,,0.002,0.002,0.03,9.11125
2022-09-03T13:47:03.841099,4.965,0.441,-4.524,0.0,5.996,6.186,5.996,7156.78,18.06,252.8,239.8,240.8,7.705,50.0,6172.35,855.36,95.0,0.0,7.17,3.39,0.0,0.002,0.002,0.031,9.1125
2022-09-03T13:49:04.017684,7.543,0.481,-7.062,0.0,4.412,6.186,4.412,7156.95,18.23,246.3,238.5,237.8,5.008,50.0,6172.58,855.36,95.0,0.0,7.17,3.39,0.0,0.001,0.002,0.03,9.11375
2022-09-03T13:51:04.502667,4.758,0.41,-4.348,0.0,3.318,6.186,3.318,7157.08,18.36,244.8,236.3,236.3,4.004,50.0,6172.72,855.36,95.0,0.0,7.17,3.39,0.0,0.001,0.002,0.03,9.115
2022-09-03T13:53:03.374285,4.223,0.482,-3.741,0.0,3.585,6.186,3.585,7157.19,18.47,244.6,238.0,238.8,4.578,50.02,6172.87,855.36,95.0,0.0,7.17,3.39,0.0,0.002,0.002,0.031,9.11625
2022-09-03T13:55:08.917620,5.896,0.577,-5.319,0.0,,,,,,,,,,,,,,,,,,0.002,0.002,0.031,9.1175
2022-09-03T13:57:03.645544,4.709,0.411,-4.298,0.0,3.466,6.186,3.466,7157.45,18.73,244.3,238.3,238.6,4.253,50.02,6173.2,855.36,95.0,0.0,7.17,3.39,0.0,0.002,0.002,0.031,9.11875
2022-09-03T13:59:08.603632,4.811,0.314,-4.497,0.0,,,,,,,,,,,,,,,,,,0.002,0.002,0.031,9.12
2022-09-03T14:01:11.153,,,,,,,,,,,,,,,,,,,,,,0.002,0.002,0.031,9.12125
2022-09-03T14:03:05.378999,6.473,0.439,-6.034,0.0,,,,,,,,,,,,,,,,,,0.002,0.001,0.031,9.1225
2022-09-03T14:05:07.874222,5.313,0.512,-4.801,0.0,,,,,,,,,,,,,,,,,,0.001,0.002,0.03,9.1225
2022-09-03T14:07:04.390278,4.938,0.568,-4.37,0.0,3.997,6.186,3.997,7158.09,19.36,246.6,238.3,237.3,4.977,50.02,6173.99,855.36,95.0,0.0,7.18,3.39,0.0,0.002,0.001,0.03,9.12375
2022-09-03T14:09:03.866993,3.733,0.624,-3.109,0.0,2.813,6.186,2.813,7158.19,19.47,242.1,236.8,236.6,3.263,50.0,6174.1,855.36,95.0,0.0,7.18,3.39,0.0,0.001,0.002,0.03,9.125
2022-09-03T14:11:08.562746,,,,,3.245,6.186,3.245,7158.3,19.58,244.6,236.1,236.1,3.578,49.97,6174.25,855.36,95.0,0.0,7.18,3.39,0.0,0.001,0.002,0.03,9.12625
2022-09-03T14:13:04.401252,4.739,0.615,-4.124,0.0,3.646,6.186,3.646,7158.41,19.69,246.3,235.6,237.3,4.36,50.0,6174.37,855.36,95.0,0.0,7.18,3.39,0.0,0.002,0.001,0.03,9.1275
2022-09-03T14:15:03.743399,3.676,2.002,-1.674,0.0,2.741,6.186,2.741,7158.51,19.79,243.1,237.3,235.3,1.677,50.0,6174.47,855.36,95.0,0.0,7.18,3.39,0.0,0.614,0.529,0.563,9.1475
2022-09-03T14:17:03.834603,4.6,1.71,-2.89,0.0,3.647,6.186,3.647,7158.61,19.89,247.1,240.3,236.8,3.46,50.0,6174.54,855.36,95.0,0.0,7.18,3.39,0.0,0.422,0.354,0.51,9.19375
2022-09-03T14:19:03.448320,5.038,1.667,-3.371,0.0,3.851,6.186,3.851,7158.73,20.01,249.1,239.6,239.3,3.544,50.0,6174.66,855.36,95.0,0.0,7.18,3.39,0.0,0.432,0.348,0.52,9.2375
2022-09-03T14:21:08.486680,,,,,4.722,6.186,4.722,7158.88,20.16,250.3,239.1,239.3,4.335,49.99,6174.79,855.36,95.0,0.0,7.18,3.39,0.0,0.537,0.433,0.604,9.28625
2022-09-03T14:23:03.604615,4.141,2.435,-1.706,0.0,3.526,6.186,3.526,7159.01,20.29,244.8,236.3,237.5,2.289,50.0,6174.89,855.36,95.0,0.0,7.18,3.39,0.0,0.656,0.53,0.726,9.34375
2022-09-03T14:25:06.975371,3.69,2.721,-0.969,0.0,2.283,6.186,2.283,7159.1,20.38,240.0,238.6,234.6,0.52,49.99,6174.93,855.36,95.0,0.0,7.18,3.39,0.0,0.722,0.673,0.849,9.41875
2022-09-03T14:27:04.822814,4.241,2.71,-1.531,0.0,2.621,6.186,2.621,7159.2,20.48,241.5,239.1,236.3,0.755,50.0,6174.97,855.36,95.0,0.0,7.18,3.39,0.0,0.788,0.734,0.914,9.495
2022-09-03T14:29:03.414888,4.176,2.952,-1.224,0.0,3.061,6.186,3.061,7159.29,20.57,239.5,239.1,235.8,1.192,49.95,6175.0,855.36,95.0,0.0,7.18,3.39,0.0,0.815,0.766,0.963,9.5775
2022-09-03T14:31:08.141463,,,,,2.134,6.186,2.134,7159.38,20.66,237.8,236.0,237.6,0.017,49.97,6175.02,855.36,95.0,0.0,7.18,3.39,0.0,0.821,0.75,0.95,9.66625
2022-09-03T14:33:03.185660,3.453,2.897,-0.556,0.0,2.579,6.186,2.579,7159.46,20.74,239.8,237.8,235.8,0.551,50.0,6175.04,855.36,95.0,0.0,7.19,3.39,0.0,0.809,0.745,0.929,9.74625
2022-09-03T14:35:07.907408,3.383,2.832,-0.551,0.0,,,,,,,,,,,,,,,,,,0.815,0.744,0.925,9.8325
2022-09-03T14:37:02.827053,3.446,2.834,-0.612,0.0,3.008,6.186,3.008,7159.63,20.91,242.6,238.1,236.3,1.326,50.0,6175.08,855.36,95.0,0.0,7.19,3.39,0.0,0.822,0.75,0.936,9.91125
2022-09-03T14:39:03.707156,4.196,2.764,-1.432,0.0,2.887,6.186,2.887,7159.73,21.01,242.3,237.1,236.8,1.174,50.0,6175.12,855.36,95.0,0.0,7.19,3.39,0.0,0.835,0.756,0.941,9.995
2022-09-03T14:41:06.931493,3.916,2.774,-1.142,0.0,2.887,6.186,2.887,7159.83,21.11,241.3,238.1,236.6,1.104,49.97,6175.16,855.36,95.0,0.0,7.19,3.39,0.0,0.836,0.772,0.96,10.0825
2022-09-03T14:43:04.595566,4.111,2.969,-1.142,0.0,3.015,6.186,3.015,7159.93,21.21,243.8,238.1,235.1,1.105,50.0,6175.2,855.36,95.0,0.0,7.19,3.39,0.0,0.853,0.797,0.954,10.1675
2022-09-03T14:45:05.863930,4.18,0.296,-3.884,0.0,3.145,6.186,3.145,7160.03,21.31,245.8,239.5,237.3,3.802,50.0,6175.29,855.36,95.0,0.0,7.19,3.39,0.0,0.002,0.001,0.031,10.20125
2022-09-03T14:47:05.061043,4.395,0.378,-4.017,0.0,3.338,6.186,3.338,7160.13,21.41,247.8,240.1,239.3,4.128,50.0,6175.43,855.36,95.0,0.0,7.19,3.39,0.0,0.002,0.001,0.031,10.2025
2022-09-03T14:49:04.197621,4.639,0.329,-4.31,0.0,3.491,6.186,3.491,7160.25,21.53,243.1,238.8,237.0,4.459,50.02,6175.58,855.36,95.0,0.0,7.19,3.39,0.0,0.001,0.001,0.03,10.20375
2022-09-03T14:51:03.754659,5.012,0.388,-4.624,0.0,3.549,6.186,3.549,7160.37,21.65,245.3,238.8,239.8,4.441,50.02,6175.72,855.36,95.0,0.0,7.19,3.39,0.0,0.001,0.001,0.031,10.205
2022-09-03T14:53:03.708972,4.892,0.232,-4.66,0.0,3.73,6.186,3.73,7160.49,21.77,246.6,238.0,240.1,4.859,50.0,6175.87,855.36,95.0,0.0,7.19,3.39,0.0,0.002,0.001,0.031,10.2075
2022-09-03T14:55:05.790269,5.627,0.251,-5.376,0.0,4.194,6.186,4.194,7160.62,21.9,244.0,235.5,236.8,5.442,50.0,6176.06,855.36,95.0,0.0,7.19,3.39,0.0,0.002,0.001,0.03,10.2075
2022-09-03T14:57:05.920684,6.02,0.273,-5.747,0.0,4.457,6.186,4.457,7160.76,22.04,252.3,239.3,238.1,5.866,50.02,6176.24,855.36,95.0,0.0,7.19,3.39,0.0,0.002,0.001,0.03,10.20875
2022-09-03T14:59:04.288500,5.992,0.214,-5.778,0.0,4.381,6.186,4.381,7160.91,22.19,244.3,241.3,238.6,3.498,50.0,6176.43,855.36,95.0,0.0,7.19,3.39,0.0,0.002,0.001,0.031,10.21
2022-09-03T15:01:08.453647,,,,,4.217,6.186,4.217,7161.06,22.34,246.8,240.1,238.5,5.405,50.02,6176.58,855.36,95.0,0.0,7.19,3.39,0.0,0.002,0.001,0.031,10.21125
2022-09-03T15:03:04.006754,5.405,0.241,-5.164,0.0,3.63,6.186,3.63,7161.19,22.47,245.3,238.1,240.8,4.673,50.04,6176.75,855.36,95.0,0.0,7.19,3.39,0.0,0.001,0.001,0.031,10.2125
2022-09-03T15:05:08.340239,4.247,0.254,-3.993,0.0,,,,,,,,,,,,,,,,,,0.001,0.001,0.031,10.21375
2022-09-03T15:07:03.293945,4.541,0.207,-4.334,0.0,3.477,6.186,3.477,7161.4,22.68,242.8,239.1,240.1,4.464,50.02,6177.02,855.36,95.0,0.0,7.19,3.39,0.0,0.002,0.001,0.031,10.215
2022-09-03T15:09:04.017501,4.678,0.228,-4.45,0.0,3.66,6.186,3.66,7161.52,22.8,245.3,239.8,242.6,4.643,49.99,6177.18,855.36,95.0,0.0,7.19,3.39,0.0,0.002,0.001,0.032,10.21625
2022-09-03T15:11:03.600711,5.195,0.155,-5.04,0.0,2.877,6.186,2.877,7161.65,22.93,245.3,235.3,235.6,3.764,49.97,6177.33,855.36,95.0,0.0,7.19,3.39,0.0,0.001,0.002,0.03,10.2175
2022-09-03T15:13:04.112235,5.673,0.211,-5.462,0.0,4.209,6.186,4.209,7161.78,23.06,246.3,237.3,237.5,5.485,49.97,6177.5,855.36,95.0,0.0,7.19,3.39,0.0,0.002,0.002,0.03,10.21875
2022-09-03T15:15:08.630590,5.761,0.212,-5.549,0.0,,,,,,,,,,,,,,,,,,0.001,0.001,0.03,10.22
2022-09-03T15:17:04.591386,5.662,0.224,-5.438,0.0,4.155,6.186,4.155,7162.06,23.34,249.1,236.8,236.6,5.339,50.0,6177.87,855.36,95.0,0.0,7.19,3.39,0.0,0.001,0.001,0.03,10.22125
2022-09-03T15:19:03.682526,5.555,0.223,-5.332,0.0,4.105,6.186,4.105,7162.2,23.48,244.3,238.8,238.8,5.402,49.99,6178.06,855.36,95.0,0.0,7.19,3.39,0.0,0.001,0.001,0.031,10.22125
2022-09-03T15:21:07.258910,,,,,4.078,6.186,4.078,7162.34,23.62,243.6,239.6,239.1,5.325,49.97,6178.24,855.36,95.0,0.0,7.19,3.39,0.0,0.002,0.001,0.031,10.2225
2022-09-03T15:23:03.235527,5.497,0.222,-5.275,0.0,4.06,6.186,4.06,7162.47,23.75,246.8,239.8,238.3,5.341,49.99,6178.41,855.36,95.0,0.0,7.19,3.39,0.0,0.002,0.001,0.031,10.22375
2022-09-03T15:25:08.397676,5.405,0.335,-5.07,0.0,,,,,,,,,,,,,,,,,,0.001,0.001,0.031,10.225
2022-09-03T15:27:03.630527,5.138,0.323,-4.815,0.0,3.719,6.186,3.719,7162.73,24.01,244.8,239.3,238.6,4.795,49.99,6178.75,855.36,95.0,0.0,7.19,3.39,0.0,0.002,0.001,0.03,10.225
2022-09-03T15:29:04.268178,5.303,0.31,-4.993,0.0,3.912,6.186,3.912,7162.86,24.14,244.8,239.8,237.8,4.966,50.0,6178.91,855.36,95.0,0.0,7.2,3.39,0.0,0.001,0.001,0.03,10.22625
2022-09-03T15:31:08.712198,,,,,3.847,6.186,3.847,7162.99,24.27,248.6,237.1,238.6,4.956,50.0,6179.08,855.36,95.0,0.0,7.2,3.39,0.0,0.001,0.001,0.03,10.2275
2022-09-03T15:33:03.735587,5.16,0.254,-4.906,0.0,3.81,6.186,3.81,7163.12,24.4,247.5,237.1,239.3,4.915,50.0,6179.24,855.36,95.0,0.0,7.2,3.39,0.0,0.002,0.001,0.031,10.22875
2022-09-03T15:35:03.226763,5.161,0.269,-4.892,0.0,3.81,6.186,3.81,7163.25,24.53,248.1,233.3,240.3,4.878,50.0,6179.41,855.36,95.0,0.0,7.2,3.39,0.0,0.002,0.001,0.031,10.23
2022-09-03T15:37:04.826585,5.115,0.278,-4.837,0.0,3.788,6.186,3.788,7163.37,24.65,247.6,234.8,238.1,4.787,50.0,6179.56,855.36,95.0,0.0,7.2,3.39,0.0,0.002,0.001,0.03,10.23
2022-09-03T15:39:03.701591,5.146,0.32,-4.826,0.0,3.805,6.186,3.805,7163.5,24.78,244.3,233.6,239.8,4.871,49.99,6179.72,855.36,95.0,0.0,7.2,3.39,0.0,0.002,0.001,0.031,10.23125
2022-09-03T15:41:08.296272,,,,,3.823,6.186,3.823,7163.63,24.91,240.0,237.8,241.1,4.841,49.97,6179.89,855.36,95.0,0.0,7.2,3.39,0.0,0.002,0.001,0.031,10.2325
2022-09-03T15:43:04.112394,5.157,0.307,-4.85,0.0,3.81,6.186,3.81,7163.75,25.03,241.8,238.1,236.6,4.86,50.0,6180.06,855.36,95.0,0.0,7.2,3.39,0.0,0.001,0.002,0.03,10.23375
2022-09-03T15:45:08.174603,5.113,0.379,-4.734,0.0,,,,,,,,,,,,,,,,,,0.002,0.001,0.031,10.235
2022-09-03T15:47:04.944259,5.088,0.411,-4.677,0.0,3.758,6.186,3.758,7164.01,25.29,242.5,238.1,238.6,4.688,49.99,6180.37,855.36,95.0,0.0,7.2,3.39,0.0,0.002,0.002,0.031,10.23625
2022-09-03T15:49:02.809725,1.886,0.409,-1.477,0.0,1.068,6.186,1.068,7164.1,25.38,238.8,235.3,241.3,1.187,50.0,6180.49,855.36,95.0,0.0,7.2,3.39,0.0,0.001,0.001,0.031,10.23625
2022-09-03T15:51:08.153564,,,,,1.124,6.186,1.124,7164.17,25.45,239.3,235.8,239.6,1.469,49.99,6180.56,855.36,95.0,0.0,7.2,3.39,0.0,0.001,0.001,0.031,10.2375
2022-09-03T15:53:05.091090,1.776,0.278,-1.498,0.0,1.402,6.186,1.402,7164.22,25.5,240.6,233.8,241.3,1.817,49.99,6180.62,855.36,95.0,0.0,7.2,3.39,0.0,0.001,0.001,0.031,10.23875
2022-09-03T15:55:03.435674,4.587,0.22,-4.367,0.0,3.353,6.186,3.353,7164.31,25.59,244.8,232.6,241.8,4.269,50.0,6180.74,855.36,95.0,0.0,7.2,3.39,0.0,0.002,0.001,0.031,10.24
2022-09-03T15:57:03.697322,2.01,0.216,-1.794,0.0,1.874,6.186,1.874,7164.39,25.67,236.1,234.6,236.0,1.685,49.97,6180.85,855.36,95.0,0.0,7.2,3.39,0.0,0.001,0.001,0.03,10.24125
2022-09-03T15:59:03.569600,1.957,0.166,-1.791,0.0,1.731,6.186,1.731,7164.44,25.72,236.6,232.3,234.1,2.278,50.0,6180.89,855.36,95.0,0.0,7.21,3.39,0.0,0.001,0.001,0.03,10.2425
2022-09-03T16:00:08.644615,1.682,0.315,-1.367,0.0,,,,,,,,,,,,,,,,,,0.002,0.001,0.03,10.2425